stim,actor,emo,print_word,cong,congr,corr,train.thisRepN,train.thisTrialN,train.thisN,train.thisIndex,trials.thisRepN,trials.thisTrialN,trials.thisN,trials.thisIndex,resp.keys,resp.corr,resp.rt,expName,participant,screen,frameRate,session,date,computer,
stim/training/M11-Joy-Apex.jpg,M11,Joy,Joie,cong,0.5,right,0,0,0,1,,,,,right,1,0.477250099182,emo_stroop,2gXQyl1sFB,1440.0 * 900.0,60.560570620000576,MacBook-Pro-de-Bret.local,2019-03-01 16.50.39,Darwin-18.2.0-x86_64-i386-64bit,
stim/training/M11-Anger-Apex.jpg,M11,Ang,Colère,cong,0.5,left,0,1,1,0,,,,,left,1,0.58580994606,emo_stroop,2gXQyl1sFB,1440.0 * 900.0,60.560570620000576,MacBook-Pro-de-Bret.local,2019-03-01 16.50.39,Darwin-18.2.0-x86_64-i386-64bit,
stim/training/M11-Joy-Apex.jpg,M11,Joy,Colère,incong,-0.5,right,0,2,2,3,,,,,right,1,0.470484018326,emo_stroop,2gXQyl1sFB,1440.0 * 900.0,60.560570620000576,MacBook-Pro-de-Bret.local,2019-03-01 16.50.39,Darwin-18.2.0-x86_64-i386-64bit,
stim/training/M11-Anger-Apex.jpg,M11,Ang,Joie,incong,-0.5,left,0,3,3,2,,,,,left,1,0.600348949432,emo_stroop,2gXQyl1sFB,1440.0 * 900.0,60.560570620000576,MacBook-Pro-de-Bret.local,2019-03-01 16.50.39,Darwin-18.2.0-x86_64-i386-64bit,
stim/xp/F02-Anger-Apex.jpg,F02,Ang,u'Joie',incong,-0.5,left,,,,,0,0,0,22,None,0,,emo_stroop,2gXQyl1sFB,1440.0 * 900.0,60.560570620000576,MacBook-Pro-de-Bret.local,2019-03-01 16.50.39,Darwin-18.2.0-x86_64-i386-64bit,
stim/xp/M03-Joy-Apex.jpg,M03,Joy,u'Colère',incong,-0.5,right,,,,,0,1,1,33,right,1,0.517254829407,emo_stroop,2gXQyl1sFB,1440.0 * 900.0,60.560570620000576,MacBook-Pro-de-Bret.local,2019-03-01 16.50.39,Darwin-18.2.0-x86_64-i386-64bit,
stim/xp/F02-Joy-Apex.jpg,F02,Joy,u'Colère',incong,-0.5,right,,,,,0,2,2,23,right,1,1.77002310753,emo_stroop,2gXQyl1sFB,1440.0 * 900.0,60.560570620000576,MacBook-Pro-de-Bret.local,2019-03-01 16.50.39,Darwin-18.2.0-x86_64-i386-64bit,
stim/xp/F02-Joy-Apex.jpg,F02,Joy,u'Joie',cong,0.5,right,,,,,0,3,3,3,right,1,0.485622167587,emo_stroop,2gXQyl1sFB,1440.0 * 900.0,60.560570620000576,MacBook-Pro-de-Bret.local,2019-03-01 16.50.39,Darwin-18.2.0-x86_64-i386-64bit,
stim/xp/M06-Anger-Apex.jpg,M06,Ang,u'Joie',incong,-0.5,left,,,,,0,4,4,36,left,1,0.536002874374,emo_stroop,2gXQyl1sFB,1440.0 * 900.0,60.560570620000576,MacBook-Pro-de-Bret.local,2019-03-01 16.50.39,Darwin-18.2.0-x86_64-i386-64bit,
stim/xp/F04-Joy-Apex.jpg,F04,Joy,u'Joie',cong,0.5,right,,,,,0,5,5,7,right,1,0.453259944916,emo_stroop,2gXQyl1sFB,1440.0 * 900.0,60.560570620000576,MacBook-Pro-de-Bret.local,2019-03-01 16.50.39,Darwin-18.2.0-x86_64-i386-64bit,
stim/xp/M02-Joy-Apex.jpg,M02,Joy,u'Colère',incong,-0.5,right,,,,,0,6,6,31,right,1,0.586531877518,emo_stroop,2gXQyl1sFB,1440.0 * 900.0,60.560570620000576,MacBook-Pro-de-Bret.local,2019-03-01 16.50.39,Darwin-18.2.0-x86_64-i386-64bit,
stim/xp/M03-Joy-Apex.jpg,M03,Joy,u'Joie',cong,0.5,right,,,,,0,7,7,13,right,1,0.469957828522,emo_stroop,2gXQyl1sFB,1440.0 * 900.0,60.560570620000576,MacBook-Pro-de-Bret.local,2019-03-01 16.50.39,Darwin-18.2.0-x86_64-i386-64bit,
stim/xp/F01-Anger-Apex.jpg,F01,Ang,u'Joie',incong,-0.5,left,,,,,0,8,8,20,left,1,0.63599896431,emo_stroop,2gXQyl1sFB,1440.0 * 900.0,60.560570620000576,MacBook-Pro-de-Bret.local,2019-03-01 16.50.39,Darwin-18.2.0-x86_64-i386-64bit,
stim/xp/M08-Anger-Apex.jpg,M08,Ang,u'Joie',incong,-0.5,left,,,,,0,9,9,38,left,1,0.46862912178,emo_stroop,2gXQyl1sFB,1440.0 * 900.0,60.560570620000576,MacBook-Pro-de-Bret.local,2019-03-01 16.50.39,Darwin-18.2.0-x86_64-i386-64bit,
stim/xp/M06-Anger-Apex.jpg,M06,Ang,u'Colère',cong,0.5,left,,,,,0,10,10,16,left,1,0.75147819519,emo_stroop,2gXQyl1sFB,1440.0 * 900.0,60.560570620000576,MacBook-Pro-de-Bret.local,2019-03-01 16.50.39,Darwin-18.2.0-x86_64-i386-64bit,
stim/xp/M03-Anger-Apex.jpg,M03,Ang,u'Joie',incong,-0.5,left,,,,,0,11,11,32,left,1,0.519383907318,emo_stroop,2gXQyl1sFB,1440.0 * 900.0,60.560570620000576,MacBook-Pro-de-Bret.local,2019-03-01 16.50.39,Darwin-18.2.0-x86_64-i386-64bit,
stim/xp/M04-Anger-Apex.jpg,M04,Ang,u'Colère',cong,0.5,left,,,,,0,12,12,14,left,1,0.485965013504,emo_stroop,2gXQyl1sFB,1440.0 * 900.0,60.560570620000576,MacBook-Pro-de-Bret.local,2019-03-01 16.50.39,Darwin-18.2.0-x86_64-i386-64bit,
stim/xp/M02-Anger-Apex.jpg,M02,Ang,u'Colère',cong,0.5,left,,,,,0,13,13,10,left,1,0.802533864975,emo_stroop,2gXQyl1sFB,1440.0 * 900.0,60.560570620000576,MacBook-Pro-de-Bret.local,2019-03-01 16.50.39,Darwin-18.2.0-x86_64-i386-64bit,
stim/xp/F03-Joy-Apex.jpg,F03,Joy,u'Colère',incong,-0.5,right,,,,,0,14,14,25,right,1,0.454634904861,emo_stroop,2gXQyl1sFB,1440.0 * 900.0,60.560570620000576,MacBook-Pro-de-Bret.local,2019-03-01 16.50.39,Darwin-18.2.0-x86_64-i386-64bit,
stim/xp/F01-Joy-Apex.jpg,F01,Joy,u'Colère',incong,-0.5,right,,,,,0,15,15,21,right,1,0.43607878685,emo_stroop,2gXQyl1sFB,1440.0 * 900.0,60.560570620000576,MacBook-Pro-de-Bret.local,2019-03-01 16.50.39,Darwin-18.2.0-x86_64-i386-64bit,
stim/xp/F03-Joy-Apex.jpg,F03,Joy,u'Joie',cong,0.5,right,,,,,0,16,16,5,right,1,0.470211029053,emo_stroop,2gXQyl1sFB,1440.0 * 900.0,60.560570620000576,MacBook-Pro-de-Bret.local,2019-03-01 16.50.39,Darwin-18.2.0-x86_64-i386-64bit,
stim/xp/F04-Joy-Apex.jpg,F04,Joy,u'Colère',incong,-0.5,right,,,,,0,17,17,27,right,1,0.485603094101,emo_stroop,2gXQyl1sFB,1440.0 * 900.0,60.560570620000576,MacBook-Pro-de-Bret.local,2019-03-01 16.50.39,Darwin-18.2.0-x86_64-i386-64bit,
stim/xp/M02-Joy-Apex.jpg,M02,Joy,u'Joie',cong,0.5,right,,,,,0,18,18,11,right,1,0.486731052399,emo_stroop,2gXQyl1sFB,1440.0 * 900.0,60.560570620000576,MacBook-Pro-de-Bret.local,2019-03-01 16.50.39,Darwin-18.2.0-x86_64-i386-64bit,
stim/xp/M06-Joy-Apex.jpg,M06,Joy,u'Joie',cong,0.5,right,,,,,0,19,19,17,left,0,0.568711996078,emo_stroop,2gXQyl1sFB,1440.0 * 900.0,60.560570620000576,MacBook-Pro-de-Bret.local,2019-03-01 16.50.39,Darwin-18.2.0-x86_64-i386-64bit,
stim/xp/F05-Joy-Apex.jpg,F05,Joy,u'Colère',incong,-0.5,right,,,,,0,20,20,29,right,1,0.787118911743,emo_stroop,2gXQyl1sFB,1440.0 * 900.0,60.560570620000576,MacBook-Pro-de-Bret.local,2019-03-01 16.50.39,Darwin-18.2.0-x86_64-i386-64bit,
stim/xp/M02-Anger-Apex.jpg,M02,Ang,u'Joie',incong,-0.5,left,,,,,0,21,21,30,left,1,0.60197520256,emo_stroop,2gXQyl1sFB,1440.0 * 900.0,60.560570620000576,MacBook-Pro-de-Bret.local,2019-03-01 16.50.39,Darwin-18.2.0-x86_64-i386-64bit,
stim/xp/M06-Joy-Apex.jpg,M06,Joy,u'Colère',incong,-0.5,right,,,,,0,22,22,37,right,1,0.619457006454,emo_stroop,2gXQyl1sFB,1440.0 * 900.0,60.560570620000576,MacBook-Pro-de-Bret.local,2019-03-01 16.50.39,Darwin-18.2.0-x86_64-i386-64bit,
stim/xp/F04-Anger-Apex.jpg,F04,Ang,u'Joie',incong,-0.5,left,,,,,0,23,23,26,left,1,0.619956970215,emo_stroop,2gXQyl1sFB,1440.0 * 900.0,60.560570620000576,MacBook-Pro-de-Bret.local,2019-03-01 16.50.39,Darwin-18.2.0-x86_64-i386-64bit,
stim/xp/M08-Anger-Apex.jpg,M08,Ang,u'Colère',cong,0.5,left,,,,,0,24,24,18,left,1,0.486082077026,emo_stroop,2gXQyl1sFB,1440.0 * 900.0,60.560570620000576,MacBook-Pro-de-Bret.local,2019-03-01 16.50.39,Darwin-18.2.0-x86_64-i386-64bit,
stim/xp/M03-Anger-Apex.jpg,M03,Ang,u'Colère',cong,0.5,left,,,,,0,25,25,12,left,1,0.519861936569,emo_stroop,2gXQyl1sFB,1440.0 * 900.0,60.560570620000576,MacBook-Pro-de-Bret.local,2019-03-01 16.50.39,Darwin-18.2.0-x86_64-i386-64bit,
stim/xp/F02-Anger-Apex.jpg,F02,Ang,u'Colère',cong,0.5,left,,,,,0,26,26,2,left,1,0.83336019516,emo_stroop,2gXQyl1sFB,1440.0 * 900.0,60.560570620000576,MacBook-Pro-de-Bret.local,2019-03-01 16.50.39,Darwin-18.2.0-x86_64-i386-64bit,
stim/xp/M08-Joy-Apex.jpg,M08,Joy,u'Joie',cong,0.5,right,,,,,0,27,27,19,left,0,0.702894926071,emo_stroop,2gXQyl1sFB,1440.0 * 900.0,60.560570620000576,MacBook-Pro-de-Bret.local,2019-03-01 16.50.39,Darwin-18.2.0-x86_64-i386-64bit,
stim/xp/M08-Joy-Apex.jpg,M08,Joy,u'Colère',incong,-0.5,right,,,,,0,28,28,39,right,1,0.400362968445,emo_stroop,2gXQyl1sFB,1440.0 * 900.0,60.560570620000576,MacBook-Pro-de-Bret.local,2019-03-01 16.50.39,Darwin-18.2.0-x86_64-i386-64bit,
stim/xp/F05-Anger-Apex.jpg,F05,Ang,u'Colère',cong,0.5,left,,,,,0,29,29,8,left,1,0.73654294014,emo_stroop,2gXQyl1sFB,1440.0 * 900.0,60.560570620000576,MacBook-Pro-de-Bret.local,2019-03-01 16.50.39,Darwin-18.2.0-x86_64-i386-64bit,
stim/xp/F01-Anger-Apex.jpg,F01,Ang,u'Colère',cong,0.5,left,,,,,0,30,30,0,left,1,0.653573989868,emo_stroop,2gXQyl1sFB,1440.0 * 900.0,60.560570620000576,MacBook-Pro-de-Bret.local,2019-03-01 16.50.39,Darwin-18.2.0-x86_64-i386-64bit,
stim/xp/M04-Joy-Apex.jpg,M04,Joy,u'Joie',cong,0.5,right,,,,,0,31,31,15,right,1,0.419294834137,emo_stroop,2gXQyl1sFB,1440.0 * 900.0,60.560570620000576,MacBook-Pro-de-Bret.local,2019-03-01 16.50.39,Darwin-18.2.0-x86_64-i386-64bit,
stim/xp/F01-Joy-Apex.jpg,F01,Joy,u'Joie',cong,0.5,right,,,,,0,32,32,1,right,1,0.486186027527,emo_stroop,2gXQyl1sFB,1440.0 * 900.0,60.560570620000576,MacBook-Pro-de-Bret.local,2019-03-01 16.50.39,Darwin-18.2.0-x86_64-i386-64bit,
stim/xp/F05-Joy-Apex.jpg,F05,Joy,u'Joie',cong,0.5,right,,,,,0,33,33,9,right,1,0.419579029083,emo_stroop,2gXQyl1sFB,1440.0 * 900.0,60.560570620000576,MacBook-Pro-de-Bret.local,2019-03-01 16.50.39,Darwin-18.2.0-x86_64-i386-64bit,
stim/xp/F04-Anger-Apex.jpg,F04,Ang,u'Colère',cong,0.5,left,,,,,0,34,34,6,left,1,0.56974697113,emo_stroop,2gXQyl1sFB,1440.0 * 900.0,60.560570620000576,MacBook-Pro-de-Bret.local,2019-03-01 16.50.39,Darwin-18.2.0-x86_64-i386-64bit,
stim/xp/F03-Anger-Apex.jpg,F03,Ang,u'Joie',incong,-0.5,left,,,,,0,35,35,24,left,1,0.518167972565,emo_stroop,2gXQyl1sFB,1440.0 * 900.0,60.560570620000576,MacBook-Pro-de-Bret.local,2019-03-01 16.50.39,Darwin-18.2.0-x86_64-i386-64bit,
stim/xp/M04-Anger-Apex.jpg,M04,Ang,u'Joie',incong,-0.5,left,,,,,0,36,36,34,left,1,0.45273900032,emo_stroop,2gXQyl1sFB,1440.0 * 900.0,60.560570620000576,MacBook-Pro-de-Bret.local,2019-03-01 16.50.39,Darwin-18.2.0-x86_64-i386-64bit,
stim/xp/F05-Anger-Apex.jpg,F05,Ang,u'Joie',incong,-0.5,left,,,,,0,37,37,28,left,1,0.386424064636,emo_stroop,2gXQyl1sFB,1440.0 * 900.0,60.560570620000576,MacBook-Pro-de-Bret.local,2019-03-01 16.50.39,Darwin-18.2.0-x86_64-i386-64bit,
stim/xp/F03-Anger-Apex.jpg,F03,Ang,u'Colère',cong,0.5,left,,,,,0,38,38,4,left,1,0.503488063812,emo_stroop,2gXQyl1sFB,1440.0 * 900.0,60.560570620000576,MacBook-Pro-de-Bret.local,2019-03-01 16.50.39,Darwin-18.2.0-x86_64-i386-64bit,
stim/xp/M04-Joy-Apex.jpg,M04,Joy,u'Colère',incong,-0.5,right,,,,,0,39,39,35,right,1,0.469987869263,emo_stroop,2gXQyl1sFB,1440.0 * 900.0,60.560570620000576,MacBook-Pro-de-Bret.local,2019-03-01 16.50.39,Darwin-18.2.0-x86_64-i386-64bit,
