stim,actor,emo,print_word,cong,congr,corr,train.thisRepN,train.thisTrialN,train.thisN,train.thisIndex,trials.thisRepN,trials.thisTrialN,trials.thisN,trials.thisIndex,resp.keys,resp.corr,resp.rt,expName,participant,screen,frameRate,session,date,computer,
stim/training/M11-Joy-Apex.jpg,M11,Joy,Colère,incong,-0.5,right,0,0,0,3,,,,,left,0,1.220744133,emo_stroop,8cRE3ko23l,1440.0 * 900.0,60.00992939257585,eduroam-110101.grenet.fr,2019-03-04 11.23.43,Darwin-18.2.0-x86_64-i386-64bit,
stim/training/M11-Anger-Apex.jpg,M11,Ang,Colère,cong,0.5,left,0,1,1,0,,,,,left,1,2.152987957,emo_stroop,8cRE3ko23l,1440.0 * 900.0,60.00992939257585,eduroam-110101.grenet.fr,2019-03-04 11.23.43,Darwin-18.2.0-x86_64-i386-64bit,
stim/training/M11-Joy-Apex.jpg,M11,Joy,Joie,cong,0.5,right,0,2,2,1,,,,,right,1,0.819578886032,emo_stroop,8cRE3ko23l,1440.0 * 900.0,60.00992939257585,eduroam-110101.grenet.fr,2019-03-04 11.23.43,Darwin-18.2.0-x86_64-i386-64bit,
stim/training/M11-Anger-Apex.jpg,M11,Ang,Joie,incong,-0.5,left,0,3,3,2,,,,,left,1,1.41951107979,emo_stroop,8cRE3ko23l,1440.0 * 900.0,60.00992939257585,eduroam-110101.grenet.fr,2019-03-04 11.23.43,Darwin-18.2.0-x86_64-i386-64bit,
stim/xp/F04-Joy-Apex.jpg,F04,Joy,Colère,incong,-0.5,right,,,,,0,0,0,27,right,1,1.21880507469,emo_stroop,8cRE3ko23l,1440.0 * 900.0,60.00992939257585,eduroam-110101.grenet.fr,2019-03-04 11.23.43,Darwin-18.2.0-x86_64-i386-64bit,
stim/xp/F03-Anger-Apex.jpg,F03,Ang,Joie,incong,-0.5,left,,,,,0,1,1,24,left,1,1.93603682518,emo_stroop,8cRE3ko23l,1440.0 * 900.0,60.00992939257585,eduroam-110101.grenet.fr,2019-03-04 11.23.43,Darwin-18.2.0-x86_64-i386-64bit,
stim/xp/F05-Joy-Apex.jpg,F05,Joy,Colère,incong,-0.5,right,,,,,0,2,2,29,right,1,1.51872301102,emo_stroop,8cRE3ko23l,1440.0 * 900.0,60.00992939257585,eduroam-110101.grenet.fr,2019-03-04 11.23.43,Darwin-18.2.0-x86_64-i386-64bit,
stim/xp/M08-Anger-Apex.jpg,M08,Ang,Joie,incong,-0.5,left,,,,,0,3,3,38,left,1,1.5196390152,emo_stroop,8cRE3ko23l,1440.0 * 900.0,60.00992939257585,eduroam-110101.grenet.fr,2019-03-04 11.23.43,Darwin-18.2.0-x86_64-i386-64bit,
stim/xp/F05-Anger-Apex.jpg,F05,Ang,Colère,cong,0.5,left,,,,,0,4,4,8,left,1,1.95296502113,emo_stroop,8cRE3ko23l,1440.0 * 900.0,60.00992939257585,eduroam-110101.grenet.fr,2019-03-04 11.23.43,Darwin-18.2.0-x86_64-i386-64bit,
stim/xp/M06-Anger-Apex.jpg,M06,Ang,Colère,cong,0.5,left,,,,,0,5,5,16,left,1,1.30063819885,emo_stroop,8cRE3ko23l,1440.0 * 900.0,60.00992939257585,eduroam-110101.grenet.fr,2019-03-04 11.23.43,Darwin-18.2.0-x86_64-i386-64bit,
stim/xp/F02-Anger-Apex.jpg,F02,Ang,Colère,cong,0.5,left,,,,,0,6,6,2,left,1,1.51844501495,emo_stroop,8cRE3ko23l,1440.0 * 900.0,60.00992939257585,eduroam-110101.grenet.fr,2019-03-04 11.23.43,Darwin-18.2.0-x86_64-i386-64bit,
stim/xp/M03-Joy-Apex.jpg,M03,Joy,Colère,incong,-0.5,right,,,,,0,7,7,33,right,1,1.15032100677,emo_stroop,8cRE3ko23l,1440.0 * 900.0,60.00992939257585,eduroam-110101.grenet.fr,2019-03-04 11.23.43,Darwin-18.2.0-x86_64-i386-64bit,
stim/xp/F01-Anger-Apex.jpg,F01,Ang,Joie,incong,-0.5,left,,,,,0,8,8,20,left,1,0.985224962234,emo_stroop,8cRE3ko23l,1440.0 * 900.0,60.00992939257585,eduroam-110101.grenet.fr,2019-03-04 11.23.43,Darwin-18.2.0-x86_64-i386-64bit,
stim/xp/F04-Joy-Apex.jpg,F04,Joy,Joie,cong,0.5,right,,,,,0,9,9,7,right,1,1.50279092789,emo_stroop,8cRE3ko23l,1440.0 * 900.0,60.00992939257585,eduroam-110101.grenet.fr,2019-03-04 11.23.43,Darwin-18.2.0-x86_64-i386-64bit,
stim/xp/M03-Anger-Apex.jpg,M03,Ang,Colère,cong,0.5,left,,,,,0,10,10,12,left,1,1.06869792938,emo_stroop,8cRE3ko23l,1440.0 * 900.0,60.00992939257585,eduroam-110101.grenet.fr,2019-03-04 11.23.43,Darwin-18.2.0-x86_64-i386-64bit,
stim/xp/M08-Joy-Apex.jpg,M08,Joy,Joie,cong,0.5,right,,,,,0,11,11,19,right,1,0.752978086472,emo_stroop,8cRE3ko23l,1440.0 * 900.0,60.00992939257585,eduroam-110101.grenet.fr,2019-03-04 11.23.43,Darwin-18.2.0-x86_64-i386-64bit,
stim/xp/M06-Joy-Apex.jpg,M06,Joy,Joie,cong,0.5,right,,,,,0,12,12,17,right,1,1.11967992783,emo_stroop,8cRE3ko23l,1440.0 * 900.0,60.00992939257585,eduroam-110101.grenet.fr,2019-03-04 11.23.43,Darwin-18.2.0-x86_64-i386-64bit,
stim/xp/M03-Anger-Apex.jpg,M03,Ang,Joie,incong,-0.5,left,,,,,0,13,13,32,left,1,1.10187101364,emo_stroop,8cRE3ko23l,1440.0 * 900.0,60.00992939257585,eduroam-110101.grenet.fr,2019-03-04 11.23.43,Darwin-18.2.0-x86_64-i386-64bit,
stim/xp/M04-Joy-Apex.jpg,M04,Joy,Joie,cong,0.5,right,,,,,0,14,14,15,right,1,0.649594068527,emo_stroop,8cRE3ko23l,1440.0 * 900.0,60.00992939257585,eduroam-110101.grenet.fr,2019-03-04 11.23.43,Darwin-18.2.0-x86_64-i386-64bit,
stim/xp/F01-Anger-Apex.jpg,F01,Ang,Colère,cong,0.5,left,,,,,0,15,15,0,left,1,0.935151815414,emo_stroop,8cRE3ko23l,1440.0 * 900.0,60.00992939257585,eduroam-110101.grenet.fr,2019-03-04 11.23.43,Darwin-18.2.0-x86_64-i386-64bit,
stim/xp/M02-Joy-Apex.jpg,M02,Joy,Joie,cong,0.5,right,,,,,0,16,16,11,right,1,1.20223093033,emo_stroop,8cRE3ko23l,1440.0 * 900.0,60.00992939257585,eduroam-110101.grenet.fr,2019-03-04 11.23.43,Darwin-18.2.0-x86_64-i386-64bit,
stim/xp/M08-Anger-Apex.jpg,M08,Ang,Colère,cong,0.5,left,,,,,0,17,17,18,left,1,0.736100912094,emo_stroop,8cRE3ko23l,1440.0 * 900.0,60.00992939257585,eduroam-110101.grenet.fr,2019-03-04 11.23.43,Darwin-18.2.0-x86_64-i386-64bit,
stim/xp/M02-Anger-Apex.jpg,M02,Ang,Joie,incong,-0.5,left,,,,,0,18,18,30,left,1,1.6697909832,emo_stroop,8cRE3ko23l,1440.0 * 900.0,60.00992939257585,eduroam-110101.grenet.fr,2019-03-04 11.23.43,Darwin-18.2.0-x86_64-i386-64bit,
stim/xp/M04-Anger-Apex.jpg,M04,Ang,Joie,incong,-0.5,left,,,,,0,19,19,34,left,1,1.28557515144,emo_stroop,8cRE3ko23l,1440.0 * 900.0,60.00992939257585,eduroam-110101.grenet.fr,2019-03-04 11.23.43,Darwin-18.2.0-x86_64-i386-64bit,
stim/xp/F01-Joy-Apex.jpg,F01,Joy,Colère,incong,-0.5,right,,,,,0,20,20,21,right,1,1.25314116478,emo_stroop,8cRE3ko23l,1440.0 * 900.0,60.00992939257585,eduroam-110101.grenet.fr,2019-03-04 11.23.43,Darwin-18.2.0-x86_64-i386-64bit,
stim/xp/F02-Joy-Apex.jpg,F02,Joy,Joie,cong,0.5,right,,,,,0,21,21,3,right,1,1.0184431076,emo_stroop,8cRE3ko23l,1440.0 * 900.0,60.00992939257585,eduroam-110101.grenet.fr,2019-03-04 11.23.43,Darwin-18.2.0-x86_64-i386-64bit,
stim/xp/M06-Joy-Apex.jpg,M06,Joy,Colère,incong,-0.5,right,,,,,0,22,22,37,right,1,0.885387897491,emo_stroop,8cRE3ko23l,1440.0 * 900.0,60.00992939257585,eduroam-110101.grenet.fr,2019-03-04 11.23.43,Darwin-18.2.0-x86_64-i386-64bit,
stim/xp/F04-Anger-Apex.jpg,F04,Ang,Joie,incong,-0.5,left,,,,,0,23,23,26,left,1,1.38380289078,emo_stroop,8cRE3ko23l,1440.0 * 900.0,60.00992939257585,eduroam-110101.grenet.fr,2019-03-04 11.23.43,Darwin-18.2.0-x86_64-i386-64bit,
stim/xp/F04-Anger-Apex.jpg,F04,Ang,Colère,cong,0.5,left,,,,,0,24,24,6,left,1,1.55211400986,emo_stroop,8cRE3ko23l,1440.0 * 900.0,60.00992939257585,eduroam-110101.grenet.fr,2019-03-04 11.23.43,Darwin-18.2.0-x86_64-i386-64bit,
stim/xp/M02-Anger-Apex.jpg,M02,Ang,Colère,cong,0.5,left,,,,,0,25,25,10,left,1,1.67096090317,emo_stroop,8cRE3ko23l,1440.0 * 900.0,60.00992939257585,eduroam-110101.grenet.fr,2019-03-04 11.23.43,Darwin-18.2.0-x86_64-i386-64bit,
stim/xp/F03-Anger-Apex.jpg,F03,Ang,Colère,cong,0.5,left,,,,,0,26,26,4,left,1,1.05033993721,emo_stroop,8cRE3ko23l,1440.0 * 900.0,60.00992939257585,eduroam-110101.grenet.fr,2019-03-04 11.23.43,Darwin-18.2.0-x86_64-i386-64bit,
stim/xp/F01-Joy-Apex.jpg,F01,Joy,Joie,cong,0.5,right,,,,,0,27,27,1,right,1,0.835546016693,emo_stroop,8cRE3ko23l,1440.0 * 900.0,60.00992939257585,eduroam-110101.grenet.fr,2019-03-04 11.23.43,Darwin-18.2.0-x86_64-i386-64bit,
stim/xp/M04-Joy-Apex.jpg,M04,Joy,Colère,incong,-0.5,right,,,,,0,28,28,35,right,1,1.66957402229,emo_stroop,8cRE3ko23l,1440.0 * 900.0,60.00992939257585,eduroam-110101.grenet.fr,2019-03-04 11.23.43,Darwin-18.2.0-x86_64-i386-64bit,
stim/xp/M06-Anger-Apex.jpg,M06,Ang,Joie,incong,-0.5,left,,,,,0,29,29,36,left,1,1.73385095596,emo_stroop,8cRE3ko23l,1440.0 * 900.0,60.00992939257585,eduroam-110101.grenet.fr,2019-03-04 11.23.43,Darwin-18.2.0-x86_64-i386-64bit,
stim/xp/F02-Anger-Apex.jpg,F02,Ang,Joie,incong,-0.5,left,,,,,0,30,30,22,right,0,1.48695087433,emo_stroop,8cRE3ko23l,1440.0 * 900.0,60.00992939257585,eduroam-110101.grenet.fr,2019-03-04 11.23.43,Darwin-18.2.0-x86_64-i386-64bit,
stim/xp/F03-Joy-Apex.jpg,F03,Joy,Colère,incong,-0.5,right,,,,,0,31,31,25,right,1,2.21871900558,emo_stroop,8cRE3ko23l,1440.0 * 900.0,60.00992939257585,eduroam-110101.grenet.fr,2019-03-04 11.23.43,Darwin-18.2.0-x86_64-i386-64bit,
stim/xp/M02-Joy-Apex.jpg,M02,Joy,Colère,incong,-0.5,right,,,,,0,32,32,31,right,1,1.15246510506,emo_stroop,8cRE3ko23l,1440.0 * 900.0,60.00992939257585,eduroam-110101.grenet.fr,2019-03-04 11.23.43,Darwin-18.2.0-x86_64-i386-64bit,
stim/xp/M08-Joy-Apex.jpg,M08,Joy,Colère,incong,-0.5,right,,,,,0,33,33,39,right,1,0.835875034332,emo_stroop,8cRE3ko23l,1440.0 * 900.0,60.00992939257585,eduroam-110101.grenet.fr,2019-03-04 11.23.43,Darwin-18.2.0-x86_64-i386-64bit,
stim/xp/F03-Joy-Apex.jpg,F03,Joy,Joie,cong,0.5,right,,,,,0,34,34,5,right,1,0.986275911331,emo_stroop,8cRE3ko23l,1440.0 * 900.0,60.00992939257585,eduroam-110101.grenet.fr,2019-03-04 11.23.43,Darwin-18.2.0-x86_64-i386-64bit,
stim/xp/M04-Anger-Apex.jpg,M04,Ang,Colère,cong,0.5,left,,,,,0,35,35,14,left,1,1.00310516357,emo_stroop,8cRE3ko23l,1440.0 * 900.0,60.00992939257585,eduroam-110101.grenet.fr,2019-03-04 11.23.43,Darwin-18.2.0-x86_64-i386-64bit,
stim/xp/F02-Joy-Apex.jpg,F02,Joy,Colère,incong,-0.5,right,,,,,0,36,36,23,right,1,1.53631210327,emo_stroop,8cRE3ko23l,1440.0 * 900.0,60.00992939257585,eduroam-110101.grenet.fr,2019-03-04 11.23.43,Darwin-18.2.0-x86_64-i386-64bit,
stim/xp/M03-Joy-Apex.jpg,M03,Joy,Joie,cong,0.5,right,,,,,0,37,37,13,right,1,1.28538107872,emo_stroop,8cRE3ko23l,1440.0 * 900.0,60.00992939257585,eduroam-110101.grenet.fr,2019-03-04 11.23.43,Darwin-18.2.0-x86_64-i386-64bit,
stim/xp/F05-Joy-Apex.jpg,F05,Joy,Joie,cong,0.5,right,,,,,0,38,38,9,right,1,1.58528184891,emo_stroop,8cRE3ko23l,1440.0 * 900.0,60.00992939257585,eduroam-110101.grenet.fr,2019-03-04 11.23.43,Darwin-18.2.0-x86_64-i386-64bit,
stim/xp/F05-Anger-Apex.jpg,F05,Ang,Joie,incong,-0.5,left,,,,,0,39,39,28,left,1,1.96942687035,emo_stroop,8cRE3ko23l,1440.0 * 900.0,60.00992939257585,eduroam-110101.grenet.fr,2019-03-04 11.23.43,Darwin-18.2.0-x86_64-i386-64bit,
