stim,actor,emo,print_word,cong,congr,corr,train.thisRepN,train.thisTrialN,train.thisN,train.thisIndex,trials.thisRepN,trials.thisTrialN,trials.thisN,trials.thisIndex,resp.keys,resp.corr,resp.rt,expName,participant,screen,frameRate,session,date,computer,
stim/training/M11-Joy-Apex.jpg,M11,Joy,Colère,incong,-0.5,right,0,0,0,3,,,,,left,0,1.176227808,emo_stroop,DY19PaxoNN,1280 * 800,None,brice-book,2019-02-20 11.28.23,Linux-4.13.0-32-generic-x86_64-with-Ubuntu-18.04-bionic,
stim/training/M11-Joy-Apex.jpg,M11,Joy,Joie,cong,0.5,right,0,1,1,1,,,,,right,1,0.814642906189,emo_stroop,DY19PaxoNN,1280 * 800,None,brice-book,2019-02-20 11.28.23,Linux-4.13.0-32-generic-x86_64-with-Ubuntu-18.04-bionic,
stim/training/M11-Anger-Apex.jpg,M11,Ang,Joie,incong,-0.5,left,0,2,2,2,,,,,left,1,0.887685060501,emo_stroop,DY19PaxoNN,1280 * 800,None,brice-book,2019-02-20 11.28.23,Linux-4.13.0-32-generic-x86_64-with-Ubuntu-18.04-bionic,
stim/training/M11-Anger-Apex.jpg,M11,Ang,Colère,cong,0.5,left,0,3,3,0,,,,,left,1,0.568668842316,emo_stroop,DY19PaxoNN,1280 * 800,None,brice-book,2019-02-20 11.28.23,Linux-4.13.0-32-generic-x86_64-with-Ubuntu-18.04-bionic,
stim/xp/F05-Anger-Apex.jpg,F05,Ang,Colère,cong,0.5,left,,,,,0,0,0,8,left,1,0.655818939209,emo_stroop,DY19PaxoNN,1280 * 800,None,brice-book,2019-02-20 11.28.23,Linux-4.13.0-32-generic-x86_64-with-Ubuntu-18.04-bionic,
stim/xp/F02-Joy-Apex.jpg,F02,Joy,Colère,incong,-0.5,right,,,,,0,1,1,23,right,1,0.53963804245,emo_stroop,DY19PaxoNN,1280 * 800,None,brice-book,2019-02-20 11.28.23,Linux-4.13.0-32-generic-x86_64-with-Ubuntu-18.04-bionic,
stim/xp/M06-Joy-Apex.jpg,M06,Joy,Colère,incong,-0.5,right,,,,,0,2,2,37,left,0,0.624866962433,emo_stroop,DY19PaxoNN,1280 * 800,None,brice-book,2019-02-20 11.28.23,Linux-4.13.0-32-generic-x86_64-with-Ubuntu-18.04-bionic,
stim/xp/F02-Anger-Apex.jpg,F02,Ang,Joie,incong,-0.5,left,,,,,0,3,3,22,left,1,0.958335161209,emo_stroop,DY19PaxoNN,1280 * 800,None,brice-book,2019-02-20 11.28.23,Linux-4.13.0-32-generic-x86_64-with-Ubuntu-18.04-bionic,
stim/xp/F04-Anger-Apex.jpg,F04,Ang,Colère,cong,0.5,left,,,,,0,4,4,6,left,1,0.571876049042,emo_stroop,DY19PaxoNN,1280 * 800,None,brice-book,2019-02-20 11.28.23,Linux-4.13.0-32-generic-x86_64-with-Ubuntu-18.04-bionic,
stim/xp/F03-Joy-Apex.jpg,F03,Joy,Colère,incong,-0.5,right,,,,,0,5,5,25,right,1,1.0822520256,emo_stroop,DY19PaxoNN,1280 * 800,None,brice-book,2019-02-20 11.28.23,Linux-4.13.0-32-generic-x86_64-with-Ubuntu-18.04-bionic,
stim/xp/M06-Joy-Apex.jpg,M06,Joy,Joie,cong,0.5,right,,,,,0,6,6,17,right,1,0.631169080734,emo_stroop,DY19PaxoNN,1280 * 800,None,brice-book,2019-02-20 11.28.23,Linux-4.13.0-32-generic-x86_64-with-Ubuntu-18.04-bionic,
stim/xp/F01-Anger-Apex.jpg,F01,Ang,Colère,cong,0.5,left,,,,,0,7,7,0,left,1,0.570786952972,emo_stroop,DY19PaxoNN,1280 * 800,None,brice-book,2019-02-20 11.28.23,Linux-4.13.0-32-generic-x86_64-with-Ubuntu-18.04-bionic,
stim/xp/M04-Anger-Apex.jpg,M04,Ang,Colère,cong,0.5,left,,,,,0,8,8,14,left,1,0.568684101105,emo_stroop,DY19PaxoNN,1280 * 800,None,brice-book,2019-02-20 11.28.23,Linux-4.13.0-32-generic-x86_64-with-Ubuntu-18.04-bionic,
stim/xp/M02-Anger-Apex.jpg,M02,Ang,Colère,cong,0.5,left,,,,,0,9,9,10,left,1,0.592269182205,emo_stroop,DY19PaxoNN,1280 * 800,None,brice-book,2019-02-20 11.28.23,Linux-4.13.0-32-generic-x86_64-with-Ubuntu-18.04-bionic,
stim/xp/M08-Joy-Apex.jpg,M08,Joy,Joie,cong,0.5,right,,,,,0,10,10,19,left,0,0.629505157471,emo_stroop,DY19PaxoNN,1280 * 800,None,brice-book,2019-02-20 11.28.23,Linux-4.13.0-32-generic-x86_64-with-Ubuntu-18.04-bionic,
stim/xp/F03-Joy-Apex.jpg,F03,Joy,Joie,cong,0.5,right,,,,,0,11,11,5,right,1,0.750609874725,emo_stroop,DY19PaxoNN,1280 * 800,None,brice-book,2019-02-20 11.28.23,Linux-4.13.0-32-generic-x86_64-with-Ubuntu-18.04-bionic,
stim/xp/M08-Joy-Apex.jpg,M08,Joy,Colère,incong,-0.5,right,,,,,0,12,12,39,right,1,0.539433002472,emo_stroop,DY19PaxoNN,1280 * 800,None,brice-book,2019-02-20 11.28.23,Linux-4.13.0-32-generic-x86_64-with-Ubuntu-18.04-bionic,
stim/xp/M04-Joy-Apex.jpg,M04,Joy,Colère,incong,-0.5,right,,,,,0,13,13,35,right,1,0.472306966782,emo_stroop,DY19PaxoNN,1280 * 800,None,brice-book,2019-02-20 11.28.23,Linux-4.13.0-32-generic-x86_64-with-Ubuntu-18.04-bionic,
stim/xp/F04-Joy-Apex.jpg,F04,Joy,Colère,incong,-0.5,right,,,,,0,14,14,27,right,1,0.610373020172,emo_stroop,DY19PaxoNN,1280 * 800,None,brice-book,2019-02-20 11.28.23,Linux-4.13.0-32-generic-x86_64-with-Ubuntu-18.04-bionic,
stim/xp/F05-Joy-Apex.jpg,F05,Joy,Colère,incong,-0.5,right,,,,,0,15,15,29,right,1,0.526819944382,emo_stroop,DY19PaxoNN,1280 * 800,None,brice-book,2019-02-20 11.28.23,Linux-4.13.0-32-generic-x86_64-with-Ubuntu-18.04-bionic,
stim/xp/M08-Anger-Apex.jpg,M08,Ang,Joie,incong,-0.5,left,,,,,0,16,16,38,left,1,0.747373104095,emo_stroop,DY19PaxoNN,1280 * 800,None,brice-book,2019-02-20 11.28.23,Linux-4.13.0-32-generic-x86_64-with-Ubuntu-18.04-bionic,
stim/xp/M03-Joy-Apex.jpg,M03,Joy,Colère,incong,-0.5,right,,,,,0,17,17,33,right,1,0.583609104156,emo_stroop,DY19PaxoNN,1280 * 800,None,brice-book,2019-02-20 11.28.23,Linux-4.13.0-32-generic-x86_64-with-Ubuntu-18.04-bionic,
stim/xp/M04-Joy-Apex.jpg,M04,Joy,Joie,cong,0.5,right,,,,,0,18,18,15,right,1,0.517900943756,emo_stroop,DY19PaxoNN,1280 * 800,None,brice-book,2019-02-20 11.28.23,Linux-4.13.0-32-generic-x86_64-with-Ubuntu-18.04-bionic,
stim/xp/F04-Anger-Apex.jpg,F04,Ang,Joie,incong,-0.5,left,,,,,0,19,19,26,left,1,0.704718112946,emo_stroop,DY19PaxoNN,1280 * 800,None,brice-book,2019-02-20 11.28.23,Linux-4.13.0-32-generic-x86_64-with-Ubuntu-18.04-bionic,
stim/xp/F01-Joy-Apex.jpg,F01,Joy,Colère,incong,-0.5,right,,,,,0,20,20,21,left,0,1.04748177528,emo_stroop,DY19PaxoNN,1280 * 800,None,brice-book,2019-02-20 11.28.23,Linux-4.13.0-32-generic-x86_64-with-Ubuntu-18.04-bionic,
stim/xp/M06-Anger-Apex.jpg,M06,Ang,Joie,incong,-0.5,left,,,,,0,21,21,36,left,1,0.581605911255,emo_stroop,DY19PaxoNN,1280 * 800,None,brice-book,2019-02-20 11.28.23,Linux-4.13.0-32-generic-x86_64-with-Ubuntu-18.04-bionic,
stim/xp/M02-Joy-Apex.jpg,M02,Joy,Joie,cong,0.5,right,,,,,0,22,22,11,right,1,0.526262044907,emo_stroop,DY19PaxoNN,1280 * 800,None,brice-book,2019-02-20 11.28.23,Linux-4.13.0-32-generic-x86_64-with-Ubuntu-18.04-bionic,
stim/xp/M06-Anger-Apex.jpg,M06,Ang,Colère,cong,0.5,left,,,,,0,23,23,16,left,1,0.437324047089,emo_stroop,DY19PaxoNN,1280 * 800,None,brice-book,2019-02-20 11.28.23,Linux-4.13.0-32-generic-x86_64-with-Ubuntu-18.04-bionic,
stim/xp/F01-Joy-Apex.jpg,F01,Joy,Joie,cong,0.5,right,,,,,0,24,24,1,left,0,0.565317869186,emo_stroop,DY19PaxoNN,1280 * 800,None,brice-book,2019-02-20 11.28.23,Linux-4.13.0-32-generic-x86_64-with-Ubuntu-18.04-bionic,
stim/xp/F02-Joy-Apex.jpg,F02,Joy,Joie,cong,0.5,right,,,,,0,25,25,3,right,1,0.750118970871,emo_stroop,DY19PaxoNN,1280 * 800,None,brice-book,2019-02-20 11.28.23,Linux-4.13.0-32-generic-x86_64-with-Ubuntu-18.04-bionic,
stim/xp/M03-Anger-Apex.jpg,M03,Ang,Joie,incong,-0.5,left,,,,,0,26,26,32,left,1,0.687752008438,emo_stroop,DY19PaxoNN,1280 * 800,None,brice-book,2019-02-20 11.28.23,Linux-4.13.0-32-generic-x86_64-with-Ubuntu-18.04-bionic,
stim/xp/F04-Joy-Apex.jpg,F04,Joy,Joie,cong,0.5,right,,,,,0,27,27,7,right,1,0.525662899017,emo_stroop,DY19PaxoNN,1280 * 800,None,brice-book,2019-02-20 11.28.23,Linux-4.13.0-32-generic-x86_64-with-Ubuntu-18.04-bionic,
stim/xp/M04-Anger-Apex.jpg,M04,Ang,Joie,incong,-0.5,left,,,,,0,28,28,34,left,1,0.543719053268,emo_stroop,DY19PaxoNN,1280 * 800,None,brice-book,2019-02-20 11.28.23,Linux-4.13.0-32-generic-x86_64-with-Ubuntu-18.04-bionic,
stim/xp/F03-Anger-Apex.jpg,F03,Ang,Colère,cong,0.5,left,,,,,0,29,29,4,left,1,0.538887023926,emo_stroop,DY19PaxoNN,1280 * 800,None,brice-book,2019-02-20 11.28.23,Linux-4.13.0-32-generic-x86_64-with-Ubuntu-18.04-bionic,
stim/xp/F01-Anger-Apex.jpg,F01,Ang,Joie,incong,-0.5,left,,,,,0,30,30,20,left,1,0.567492008209,emo_stroop,DY19PaxoNN,1280 * 800,None,brice-book,2019-02-20 11.28.23,Linux-4.13.0-32-generic-x86_64-with-Ubuntu-18.04-bionic,
stim/xp/M08-Anger-Apex.jpg,M08,Ang,Colère,cong,0.5,left,,,,,0,31,31,18,left,1,0.65033698082,emo_stroop,DY19PaxoNN,1280 * 800,None,brice-book,2019-02-20 11.28.23,Linux-4.13.0-32-generic-x86_64-with-Ubuntu-18.04-bionic,
stim/xp/M03-Anger-Apex.jpg,M03,Ang,Colère,cong,0.5,left,,,,,0,32,32,12,left,1,0.461454868317,emo_stroop,DY19PaxoNN,1280 * 800,None,brice-book,2019-02-20 11.28.23,Linux-4.13.0-32-generic-x86_64-with-Ubuntu-18.04-bionic,
stim/xp/F05-Joy-Apex.jpg,F05,Joy,Joie,cong,0.5,right,,,,,0,33,33,9,right,1,0.777997970581,emo_stroop,DY19PaxoNN,1280 * 800,None,brice-book,2019-02-20 11.28.23,Linux-4.13.0-32-generic-x86_64-with-Ubuntu-18.04-bionic,
stim/xp/F03-Anger-Apex.jpg,F03,Ang,Joie,incong,-0.5,left,,,,,0,34,34,24,left,1,0.45810508728,emo_stroop,DY19PaxoNN,1280 * 800,None,brice-book,2019-02-20 11.28.23,Linux-4.13.0-32-generic-x86_64-with-Ubuntu-18.04-bionic,
stim/xp/F02-Anger-Apex.jpg,F02,Ang,Colère,cong,0.5,left,,,,,0,35,35,2,left,1,0.473242998123,emo_stroop,DY19PaxoNN,1280 * 800,None,brice-book,2019-02-20 11.28.23,Linux-4.13.0-32-generic-x86_64-with-Ubuntu-18.04-bionic,
stim/xp/M03-Joy-Apex.jpg,M03,Joy,Joie,cong,0.5,right,,,,,0,36,36,13,right,1,0.518050193787,emo_stroop,DY19PaxoNN,1280 * 800,None,brice-book,2019-02-20 11.28.23,Linux-4.13.0-32-generic-x86_64-with-Ubuntu-18.04-bionic,
stim/xp/F05-Anger-Apex.jpg,F05,Ang,Joie,incong,-0.5,left,,,,,0,37,37,28,left,1,0.722767829895,emo_stroop,DY19PaxoNN,1280 * 800,None,brice-book,2019-02-20 11.28.23,Linux-4.13.0-32-generic-x86_64-with-Ubuntu-18.04-bionic,
stim/xp/M02-Anger-Apex.jpg,M02,Ang,Joie,incong,-0.5,left,,,,,0,38,38,30,right,0,0.56947183609,emo_stroop,DY19PaxoNN,1280 * 800,None,brice-book,2019-02-20 11.28.23,Linux-4.13.0-32-generic-x86_64-with-Ubuntu-18.04-bionic,
stim/xp/M02-Joy-Apex.jpg,M02,Joy,Colère,incong,-0.5,right,,,,,0,39,39,31,right,1,0.50536608696,emo_stroop,DY19PaxoNN,1280 * 800,None,brice-book,2019-02-20 11.28.23,Linux-4.13.0-32-generic-x86_64-with-Ubuntu-18.04-bionic,
