stim,actor,emo,print_word,cong,congr,corr,train.thisRepN,train.thisTrialN,train.thisN,train.thisIndex,trials.thisRepN,trials.thisTrialN,trials.thisN,trials.thisIndex,resp.keys,resp.corr,resp.rt,expName,participant,screen,frameRate,session,date,computer,
stim/training/M11-Anger-Apex.jpg,M11,Ang,Colère,cong,0.5,left,0,0,0,0,,,,,left,1,0.847393989563,emo_stroop,edW2j092F7,2960 * 1050,None,brice-book,2019-04-25 11.55.19,Linux-4.13.0-32-generic-x86_64-with-Ubuntu-18.04-bionic,
stim/training/M11-Joy-Apex.jpg,M11,Joy,Joie,cong,0.5,right,0,1,1,1,,,,,right,1,0.572705984116,emo_stroop,edW2j092F7,2960 * 1050,None,brice-book,2019-04-25 11.55.19,Linux-4.13.0-32-generic-x86_64-with-Ubuntu-18.04-bionic,
stim/training/M11-Anger-Apex.jpg,M11,Ang,Joie,incong,-0.5,left,0,2,2,2,,,,,left,1,0.7908680439,emo_stroop,edW2j092F7,2960 * 1050,None,brice-book,2019-04-25 11.55.19,Linux-4.13.0-32-generic-x86_64-with-Ubuntu-18.04-bionic,
stim/training/M11-Joy-Apex.jpg,M11,Joy,Colère,incong,-0.5,right,0,3,3,3,,,,,right,1,0.582245111465,emo_stroop,edW2j092F7,2960 * 1050,None,brice-book,2019-04-25 11.55.19,Linux-4.13.0-32-generic-x86_64-with-Ubuntu-18.04-bionic,
stim/xp/F01-Anger-Apex.jpg,F01,Ang,Joie,incong,-0.5,left,,,,,0,0,0,20,left,1,0.709563016891,emo_stroop,edW2j092F7,2960 * 1050,None,brice-book,2019-04-25 11.55.19,Linux-4.13.0-32-generic-x86_64-with-Ubuntu-18.04-bionic,
stim/xp/M04-Joy-Apex.jpg,M04,Joy,Colère,incong,-0.5,right,,,,,0,1,1,35,right,1,0.676858901978,emo_stroop,edW2j092F7,2960 * 1050,None,brice-book,2019-04-25 11.55.19,Linux-4.13.0-32-generic-x86_64-with-Ubuntu-18.04-bionic,
stim/xp/M06-Anger-Apex.jpg,M06,Ang,Joie,incong,-0.5,left,,,,,0,2,2,36,left,1,0.701398134232,emo_stroop,edW2j092F7,2960 * 1050,None,brice-book,2019-04-25 11.55.19,Linux-4.13.0-32-generic-x86_64-with-Ubuntu-18.04-bionic,
stim/xp/F04-Joy-Apex.jpg,F04,Joy,Colère,incong,-0.5,right,,,,,0,3,3,27,right,1,0.798154115677,emo_stroop,edW2j092F7,2960 * 1050,None,brice-book,2019-04-25 11.55.19,Linux-4.13.0-32-generic-x86_64-with-Ubuntu-18.04-bionic,
stim/xp/M03-Anger-Apex.jpg,M03,Ang,Colère,cong,0.5,left,,,,,0,4,4,12,left,1,0.549751996994,emo_stroop,edW2j092F7,2960 * 1050,None,brice-book,2019-04-25 11.55.19,Linux-4.13.0-32-generic-x86_64-with-Ubuntu-18.04-bionic,
stim/xp/F03-Anger-Apex.jpg,F03,Ang,Colère,cong,0.5,left,,,,,0,5,5,4,left,1,1.24477291107,emo_stroop,edW2j092F7,2960 * 1050,None,brice-book,2019-04-25 11.55.19,Linux-4.13.0-32-generic-x86_64-with-Ubuntu-18.04-bionic,
stim/xp/M02-Anger-Apex.jpg,M02,Ang,Colère,cong,0.5,left,,,,,0,6,6,10,left,1,0.532348155975,emo_stroop,edW2j092F7,2960 * 1050,None,brice-book,2019-04-25 11.55.19,Linux-4.13.0-32-generic-x86_64-with-Ubuntu-18.04-bionic,
stim/xp/F03-Joy-Apex.jpg,F03,Joy,Colère,incong,-0.5,right,,,,,0,7,7,25,right,1,0.549540996552,emo_stroop,edW2j092F7,2960 * 1050,None,brice-book,2019-04-25 11.55.19,Linux-4.13.0-32-generic-x86_64-with-Ubuntu-18.04-bionic,
stim/xp/F05-Anger-Apex.jpg,F05,Ang,Colère,cong,0.5,left,,,,,0,8,8,8,left,1,0.708863973618,emo_stroop,edW2j092F7,2960 * 1050,None,brice-book,2019-04-25 11.55.19,Linux-4.13.0-32-generic-x86_64-with-Ubuntu-18.04-bionic,
stim/xp/F03-Anger-Apex.jpg,F03,Ang,Joie,incong,-0.5,left,,,,,0,9,9,24,left,1,0.692085027695,emo_stroop,edW2j092F7,2960 * 1050,None,brice-book,2019-04-25 11.55.19,Linux-4.13.0-32-generic-x86_64-with-Ubuntu-18.04-bionic,
stim/xp/M06-Anger-Apex.jpg,M06,Ang,Colère,cong,0.5,left,,,,,0,10,10,16,left,1,0.560972929001,emo_stroop,edW2j092F7,2960 * 1050,None,brice-book,2019-04-25 11.55.19,Linux-4.13.0-32-generic-x86_64-with-Ubuntu-18.04-bionic,
stim/xp/F01-Anger-Apex.jpg,F01,Ang,Colère,cong,0.5,left,,,,,0,11,11,0,left,1,0.770651102066,emo_stroop,edW2j092F7,2960 * 1050,None,brice-book,2019-04-25 11.55.19,Linux-4.13.0-32-generic-x86_64-with-Ubuntu-18.04-bionic,
stim/xp/F02-Anger-Apex.jpg,F02,Ang,Joie,incong,-0.5,left,,,,,0,12,12,22,left,1,0.574557065964,emo_stroop,edW2j092F7,2960 * 1050,None,brice-book,2019-04-25 11.55.19,Linux-4.13.0-32-generic-x86_64-with-Ubuntu-18.04-bionic,
stim/xp/M08-Joy-Apex.jpg,M08,Joy,Colère,incong,-0.5,right,,,,,0,13,13,39,right,1,0.4842710495,emo_stroop,edW2j092F7,2960 * 1050,None,brice-book,2019-04-25 11.55.19,Linux-4.13.0-32-generic-x86_64-with-Ubuntu-18.04-bionic,
stim/xp/M06-Joy-Apex.jpg,M06,Joy,Colère,incong,-0.5,right,,,,,0,14,14,37,right,1,0.494844913483,emo_stroop,edW2j092F7,2960 * 1050,None,brice-book,2019-04-25 11.55.19,Linux-4.13.0-32-generic-x86_64-with-Ubuntu-18.04-bionic,
stim/xp/M08-Joy-Apex.jpg,M08,Joy,Joie,cong,0.5,right,,,,,0,15,15,19,right,1,0.645750999451,emo_stroop,edW2j092F7,2960 * 1050,None,brice-book,2019-04-25 11.55.19,Linux-4.13.0-32-generic-x86_64-with-Ubuntu-18.04-bionic,
stim/xp/M08-Anger-Apex.jpg,M08,Ang,Colère,cong,0.5,left,,,,,0,16,16,18,left,1,0.663073062897,emo_stroop,edW2j092F7,2960 * 1050,None,brice-book,2019-04-25 11.55.19,Linux-4.13.0-32-generic-x86_64-with-Ubuntu-18.04-bionic,
stim/xp/F02-Joy-Apex.jpg,F02,Joy,Joie,cong,0.5,right,,,,,0,17,17,3,right,1,0.548674106598,emo_stroop,edW2j092F7,2960 * 1050,None,brice-book,2019-04-25 11.55.19,Linux-4.13.0-32-generic-x86_64-with-Ubuntu-18.04-bionic,
stim/xp/F02-Anger-Apex.jpg,F02,Ang,Colère,cong,0.5,left,,,,,0,18,18,2,left,1,0.817993879318,emo_stroop,edW2j092F7,2960 * 1050,None,brice-book,2019-04-25 11.55.19,Linux-4.13.0-32-generic-x86_64-with-Ubuntu-18.04-bionic,
stim/xp/M03-Anger-Apex.jpg,M03,Ang,Joie,incong,-0.5,left,,,,,0,19,19,32,left,1,0.505309104919,emo_stroop,edW2j092F7,2960 * 1050,None,brice-book,2019-04-25 11.55.19,Linux-4.13.0-32-generic-x86_64-with-Ubuntu-18.04-bionic,
stim/xp/F04-Anger-Apex.jpg,F04,Ang,Joie,incong,-0.5,left,,,,,0,20,20,26,left,1,0.575694084167,emo_stroop,edW2j092F7,2960 * 1050,None,brice-book,2019-04-25 11.55.19,Linux-4.13.0-32-generic-x86_64-with-Ubuntu-18.04-bionic,
stim/xp/M04-Joy-Apex.jpg,M04,Joy,Joie,cong,0.5,right,,,,,0,21,21,15,right,1,0.569326877594,emo_stroop,edW2j092F7,2960 * 1050,None,brice-book,2019-04-25 11.55.19,Linux-4.13.0-32-generic-x86_64-with-Ubuntu-18.04-bionic,
stim/xp/M06-Joy-Apex.jpg,M06,Joy,Joie,cong,0.5,right,,,,,0,22,22,17,right,1,0.496123075485,emo_stroop,edW2j092F7,2960 * 1050,None,brice-book,2019-04-25 11.55.19,Linux-4.13.0-32-generic-x86_64-with-Ubuntu-18.04-bionic,
stim/xp/M04-Anger-Apex.jpg,M04,Ang,Joie,incong,-0.5,left,,,,,0,23,23,34,left,1,0.535363912582,emo_stroop,edW2j092F7,2960 * 1050,None,brice-book,2019-04-25 11.55.19,Linux-4.13.0-32-generic-x86_64-with-Ubuntu-18.04-bionic,
stim/xp/F01-Joy-Apex.jpg,F01,Joy,Joie,cong,0.5,right,,,,,0,24,24,1,right,1,0.429980993271,emo_stroop,edW2j092F7,2960 * 1050,None,brice-book,2019-04-25 11.55.19,Linux-4.13.0-32-generic-x86_64-with-Ubuntu-18.04-bionic,
stim/xp/F04-Joy-Apex.jpg,F04,Joy,Joie,cong,0.5,right,,,,,0,25,25,7,right,1,0.519824981689,emo_stroop,edW2j092F7,2960 * 1050,None,brice-book,2019-04-25 11.55.19,Linux-4.13.0-32-generic-x86_64-with-Ubuntu-18.04-bionic,
stim/xp/M08-Anger-Apex.jpg,M08,Ang,Joie,incong,-0.5,left,,,,,0,26,26,38,left,1,0.646708011627,emo_stroop,edW2j092F7,2960 * 1050,None,brice-book,2019-04-25 11.55.19,Linux-4.13.0-32-generic-x86_64-with-Ubuntu-18.04-bionic,
stim/xp/F05-Joy-Apex.jpg,F05,Joy,Colère,incong,-0.5,right,,,,,0,27,27,29,right,1,0.466603040695,emo_stroop,edW2j092F7,2960 * 1050,None,brice-book,2019-04-25 11.55.19,Linux-4.13.0-32-generic-x86_64-with-Ubuntu-18.04-bionic,
stim/xp/M04-Anger-Apex.jpg,M04,Ang,Colère,cong,0.5,left,,,,,0,28,28,14,left,1,0.680781126022,emo_stroop,edW2j092F7,2960 * 1050,None,brice-book,2019-04-25 11.55.19,Linux-4.13.0-32-generic-x86_64-with-Ubuntu-18.04-bionic,
stim/xp/F04-Anger-Apex.jpg,F04,Ang,Colère,cong,0.5,left,,,,,0,29,29,6,left,1,0.517174959183,emo_stroop,edW2j092F7,2960 * 1050,None,brice-book,2019-04-25 11.55.19,Linux-4.13.0-32-generic-x86_64-with-Ubuntu-18.04-bionic,
stim/xp/M02-Anger-Apex.jpg,M02,Ang,Joie,incong,-0.5,left,,,,,0,30,30,30,left,1,0.432003974915,emo_stroop,edW2j092F7,2960 * 1050,None,brice-book,2019-04-25 11.55.19,Linux-4.13.0-32-generic-x86_64-with-Ubuntu-18.04-bionic,
stim/xp/F02-Joy-Apex.jpg,F02,Joy,Colère,incong,-0.5,right,,,,,0,31,31,23,right,1,0.553364038467,emo_stroop,edW2j092F7,2960 * 1050,None,brice-book,2019-04-25 11.55.19,Linux-4.13.0-32-generic-x86_64-with-Ubuntu-18.04-bionic,
stim/xp/F01-Joy-Apex.jpg,F01,Joy,Colère,incong,-0.5,right,,,,,0,32,32,21,right,1,0.488955020905,emo_stroop,edW2j092F7,2960 * 1050,None,brice-book,2019-04-25 11.55.19,Linux-4.13.0-32-generic-x86_64-with-Ubuntu-18.04-bionic,
stim/xp/M02-Joy-Apex.jpg,M02,Joy,Colère,incong,-0.5,right,,,,,0,33,33,31,right,1,0.483565092087,emo_stroop,edW2j092F7,2960 * 1050,None,brice-book,2019-04-25 11.55.19,Linux-4.13.0-32-generic-x86_64-with-Ubuntu-18.04-bionic,
stim/xp/F05-Joy-Apex.jpg,F05,Joy,Joie,cong,0.5,right,,,,,0,34,34,9,right,1,0.641408920288,emo_stroop,edW2j092F7,2960 * 1050,None,brice-book,2019-04-25 11.55.19,Linux-4.13.0-32-generic-x86_64-with-Ubuntu-18.04-bionic,
stim/xp/M02-Joy-Apex.jpg,M02,Joy,Joie,cong,0.5,right,,,,,0,35,35,11,right,1,0.524590015411,emo_stroop,edW2j092F7,2960 * 1050,None,brice-book,2019-04-25 11.55.19,Linux-4.13.0-32-generic-x86_64-with-Ubuntu-18.04-bionic,
stim/xp/M03-Joy-Apex.jpg,M03,Joy,Joie,cong,0.5,right,,,,,0,36,36,13,right,1,0.560062885284,emo_stroop,edW2j092F7,2960 * 1050,None,brice-book,2019-04-25 11.55.19,Linux-4.13.0-32-generic-x86_64-with-Ubuntu-18.04-bionic,
stim/xp/F05-Anger-Apex.jpg,F05,Ang,Joie,incong,-0.5,left,,,,,0,37,37,28,left,1,0.596234083176,emo_stroop,edW2j092F7,2960 * 1050,None,brice-book,2019-04-25 11.55.19,Linux-4.13.0-32-generic-x86_64-with-Ubuntu-18.04-bionic,
stim/xp/F03-Joy-Apex.jpg,F03,Joy,Joie,cong,0.5,right,,,,,0,38,38,5,right,1,0.459772109985,emo_stroop,edW2j092F7,2960 * 1050,None,brice-book,2019-04-25 11.55.19,Linux-4.13.0-32-generic-x86_64-with-Ubuntu-18.04-bionic,
stim/xp/M03-Joy-Apex.jpg,M03,Joy,Colère,incong,-0.5,right,,,,,0,39,39,33,right,1,0.608458042145,emo_stroop,edW2j092F7,2960 * 1050,None,brice-book,2019-04-25 11.55.19,Linux-4.13.0-32-generic-x86_64-with-Ubuntu-18.04-bionic,
