stim,actor,emo,print_word,cong,congr,corr,train.thisRepN,train.thisTrialN,train.thisN,train.thisIndex,trials.thisRepN,trials.thisTrialN,trials.thisN,trials.thisIndex,resp.keys,resp.corr,resp.rt,expName,participant,screen,frameRate,session,date,computer,
stim/training/M11-Anger-Apex.jpg,M11,Ang,Joie,incong,-0.5,left,0,0,0,2,,,,,left,1,2.63605880737,emo_stroop,G2V3ysjepk,1440.0 * 900.0,60.37445571205458,eduroam-110016.grenet.fr,2019-04-23 14.33.17,Darwin-18.5.0-x86_64-i386-64bit,
stim/training/M11-Anger-Apex.jpg,M11,Ang,Colère,cong,0.5,left,0,1,1,0,,,,,right,0,0.00301289558411,emo_stroop,G2V3ysjepk,1440.0 * 900.0,60.37445571205458,eduroam-110016.grenet.fr,2019-04-23 14.33.17,Darwin-18.5.0-x86_64-i386-64bit,
stim/training/M11-Joy-Apex.jpg,M11,Joy,Joie,cong,0.5,right,0,2,2,1,,,,,left,0,0.336192131042,emo_stroop,G2V3ysjepk,1440.0 * 900.0,60.37445571205458,eduroam-110016.grenet.fr,2019-04-23 14.33.17,Darwin-18.5.0-x86_64-i386-64bit,
stim/training/M11-Joy-Apex.jpg,M11,Joy,Colère,incong,-0.5,right,0,3,3,3,,,,,right,1,0.201863050461,emo_stroop,G2V3ysjepk,1440.0 * 900.0,60.37445571205458,eduroam-110016.grenet.fr,2019-04-23 14.33.17,Darwin-18.5.0-x86_64-i386-64bit,
stim/xp/M02-Anger-Apex.jpg,M02,Ang,Colère,cong,0.5,left,,,,,0,0,0,10,right,0,0.536303043365,emo_stroop,G2V3ysjepk,1440.0 * 900.0,60.37445571205458,eduroam-110016.grenet.fr,2019-04-23 14.33.17,Darwin-18.5.0-x86_64-i386-64bit,
stim/xp/F05-Joy-Apex.jpg,F05,Joy,Colère,incong,-0.5,right,,,,,0,1,1,29,right,1,0.535660982132,emo_stroop,G2V3ysjepk,1440.0 * 900.0,60.37445571205458,eduroam-110016.grenet.fr,2019-04-23 14.33.17,Darwin-18.5.0-x86_64-i386-64bit,
stim/xp/M08-Joy-Apex.jpg,M08,Joy,Joie,cong,0.5,right,,,,,0,2,2,19,left,0,0.318834066391,emo_stroop,G2V3ysjepk,1440.0 * 900.0,60.37445571205458,eduroam-110016.grenet.fr,2019-04-23 14.33.17,Darwin-18.5.0-x86_64-i386-64bit,
stim/xp/F04-Anger-Apex.jpg,F04,Ang,Joie,incong,-0.5,left,,,,,0,3,3,26,right,0,0.784934997559,emo_stroop,G2V3ysjepk,1440.0 * 900.0,60.37445571205458,eduroam-110016.grenet.fr,2019-04-23 14.33.17,Darwin-18.5.0-x86_64-i386-64bit,
stim/xp/F03-Anger-Apex.jpg,F03,Ang,Joie,incong,-0.5,left,,,,,0,4,4,24,right,0,1.26763105392,emo_stroop,G2V3ysjepk,1440.0 * 900.0,60.37445571205458,eduroam-110016.grenet.fr,2019-04-23 14.33.17,Darwin-18.5.0-x86_64-i386-64bit,
stim/xp/F04-Joy-Apex.jpg,F04,Joy,Joie,cong,0.5,right,,,,,0,5,5,7,right,1,1.08572506905,emo_stroop,G2V3ysjepk,1440.0 * 900.0,60.37445571205458,eduroam-110016.grenet.fr,2019-04-23 14.33.17,Darwin-18.5.0-x86_64-i386-64bit,
stim/xp/F05-Joy-Apex.jpg,F05,Joy,Joie,cong,0.5,right,,,,,0,6,6,9,right,1,0.802721977234,emo_stroop,G2V3ysjepk,1440.0 * 900.0,60.37445571205458,eduroam-110016.grenet.fr,2019-04-23 14.33.17,Darwin-18.5.0-x86_64-i386-64bit,
stim/xp/F01-Anger-Apex.jpg,F01,Ang,Joie,incong,-0.5,left,,,,,0,7,7,20,right,0,0.503204107285,emo_stroop,G2V3ysjepk,1440.0 * 900.0,60.37445571205458,eduroam-110016.grenet.fr,2019-04-23 14.33.17,Darwin-18.5.0-x86_64-i386-64bit,
stim/xp/M04-Anger-Apex.jpg,M04,Ang,Colère,cong,0.5,left,,,,,0,8,8,14,left,1,0.767103910446,emo_stroop,G2V3ysjepk,1440.0 * 900.0,60.37445571205458,eduroam-110016.grenet.fr,2019-04-23 14.33.17,Darwin-18.5.0-x86_64-i386-64bit,
stim/xp/M06-Anger-Apex.jpg,M06,Ang,Colère,cong,0.5,left,,,,,0,9,9,16,left,1,1.03580498695,emo_stroop,G2V3ysjepk,1440.0 * 900.0,60.37445571205458,eduroam-110016.grenet.fr,2019-04-23 14.33.17,Darwin-18.5.0-x86_64-i386-64bit,
stim/xp/F03-Anger-Apex.jpg,F03,Ang,Colère,cong,0.5,left,,,,,0,10,10,4,left,1,0.802889108658,emo_stroop,G2V3ysjepk,1440.0 * 900.0,60.37445571205458,eduroam-110016.grenet.fr,2019-04-23 14.33.17,Darwin-18.5.0-x86_64-i386-64bit,
stim/xp/M04-Joy-Apex.jpg,M04,Joy,Colère,incong,-0.5,right,,,,,0,11,11,35,right,1,0.919109106064,emo_stroop,G2V3ysjepk,1440.0 * 900.0,60.37445571205458,eduroam-110016.grenet.fr,2019-04-23 14.33.17,Darwin-18.5.0-x86_64-i386-64bit,
stim/xp/F01-Joy-Apex.jpg,F01,Joy,Colère,incong,-0.5,right,,,,,0,12,12,21,left,0,0.853035926819,emo_stroop,G2V3ysjepk,1440.0 * 900.0,60.37445571205458,eduroam-110016.grenet.fr,2019-04-23 14.33.17,Darwin-18.5.0-x86_64-i386-64bit,
stim/xp/M03-Joy-Apex.jpg,M03,Joy,Colère,incong,-0.5,right,,,,,0,13,13,33,right,1,1.16942477226,emo_stroop,G2V3ysjepk,1440.0 * 900.0,60.37445571205458,eduroam-110016.grenet.fr,2019-04-23 14.33.17,Darwin-18.5.0-x86_64-i386-64bit,
stim/xp/F01-Anger-Apex.jpg,F01,Ang,Colère,cong,0.5,left,,,,,0,14,14,0,left,1,0.617582082748,emo_stroop,G2V3ysjepk,1440.0 * 900.0,60.37445571205458,eduroam-110016.grenet.fr,2019-04-23 14.33.17,Darwin-18.5.0-x86_64-i386-64bit,
stim/xp/M06-Joy-Apex.jpg,M06,Joy,Joie,cong,0.5,right,,,,,0,15,15,17,right,1,0.986593008041,emo_stroop,G2V3ysjepk,1440.0 * 900.0,60.37445571205458,eduroam-110016.grenet.fr,2019-04-23 14.33.17,Darwin-18.5.0-x86_64-i386-64bit,
stim/xp/M03-Joy-Apex.jpg,M03,Joy,Joie,cong,0.5,right,,,,,0,16,16,13,right,1,0.901401996613,emo_stroop,G2V3ysjepk,1440.0 * 900.0,60.37445571205458,eduroam-110016.grenet.fr,2019-04-23 14.33.17,Darwin-18.5.0-x86_64-i386-64bit,
stim/xp/F03-Joy-Apex.jpg,F03,Joy,Joie,cong,0.5,right,,,,,0,17,17,5,right,1,0.785651922226,emo_stroop,G2V3ysjepk,1440.0 * 900.0,60.37445571205458,eduroam-110016.grenet.fr,2019-04-23 14.33.17,Darwin-18.5.0-x86_64-i386-64bit,
stim/xp/F05-Anger-Apex.jpg,F05,Ang,Joie,incong,-0.5,left,,,,,0,18,18,28,left,1,1.26998591423,emo_stroop,G2V3ysjepk,1440.0 * 900.0,60.37445571205458,eduroam-110016.grenet.fr,2019-04-23 14.33.17,Darwin-18.5.0-x86_64-i386-64bit,
stim/xp/F02-Anger-Apex.jpg,F02,Ang,Joie,incong,-0.5,left,,,,,0,19,19,22,right,0,0.869495868683,emo_stroop,G2V3ysjepk,1440.0 * 900.0,60.37445571205458,eduroam-110016.grenet.fr,2019-04-23 14.33.17,Darwin-18.5.0-x86_64-i386-64bit,
stim/xp/F05-Anger-Apex.jpg,F05,Ang,Colère,cong,0.5,left,,,,,0,20,20,8,left,1,0.683611154556,emo_stroop,G2V3ysjepk,1440.0 * 900.0,60.37445571205458,eduroam-110016.grenet.fr,2019-04-23 14.33.17,Darwin-18.5.0-x86_64-i386-64bit,
stim/xp/M04-Anger-Apex.jpg,M04,Ang,Joie,incong,-0.5,left,,,,,0,21,21,34,left,1,0.60044002533,emo_stroop,G2V3ysjepk,1440.0 * 900.0,60.37445571205458,eduroam-110016.grenet.fr,2019-04-23 14.33.17,Darwin-18.5.0-x86_64-i386-64bit,
stim/xp/F01-Joy-Apex.jpg,F01,Joy,Joie,cong,0.5,right,,,,,0,22,22,1,left,0,1.23525190353,emo_stroop,G2V3ysjepk,1440.0 * 900.0,60.37445571205458,eduroam-110016.grenet.fr,2019-04-23 14.33.17,Darwin-18.5.0-x86_64-i386-64bit,
stim/xp/M04-Joy-Apex.jpg,M04,Joy,Joie,cong,0.5,right,,,,,0,23,23,15,right,1,0.936186790466,emo_stroop,G2V3ysjepk,1440.0 * 900.0,60.37445571205458,eduroam-110016.grenet.fr,2019-04-23 14.33.17,Darwin-18.5.0-x86_64-i386-64bit,
stim/xp/M08-Joy-Apex.jpg,M08,Joy,Colère,incong,-0.5,right,,,,,0,24,24,39,left,0,1.21925210953,emo_stroop,G2V3ysjepk,1440.0 * 900.0,60.37445571205458,eduroam-110016.grenet.fr,2019-04-23 14.33.17,Darwin-18.5.0-x86_64-i386-64bit,
stim/xp/M02-Anger-Apex.jpg,M02,Ang,Joie,incong,-0.5,left,,,,,0,25,25,30,left,1,0.883337974548,emo_stroop,G2V3ysjepk,1440.0 * 900.0,60.37445571205458,eduroam-110016.grenet.fr,2019-04-23 14.33.17,Darwin-18.5.0-x86_64-i386-64bit,
stim/xp/M06-Joy-Apex.jpg,M06,Joy,Colère,incong,-0.5,right,,,,,0,26,26,37,right,1,0.934727907181,emo_stroop,G2V3ysjepk,1440.0 * 900.0,60.37445571205458,eduroam-110016.grenet.fr,2019-04-23 14.33.17,Darwin-18.5.0-x86_64-i386-64bit,
stim/xp/M08-Anger-Apex.jpg,M08,Ang,Joie,incong,-0.5,left,,,,,0,27,27,38,left,1,0.702012062073,emo_stroop,G2V3ysjepk,1440.0 * 900.0,60.37445571205458,eduroam-110016.grenet.fr,2019-04-23 14.33.17,Darwin-18.5.0-x86_64-i386-64bit,
stim/xp/M03-Anger-Apex.jpg,M03,Ang,Joie,incong,-0.5,left,,,,,0,28,28,32,left,1,1.25244188309,emo_stroop,G2V3ysjepk,1440.0 * 900.0,60.37445571205458,eduroam-110016.grenet.fr,2019-04-23 14.33.17,Darwin-18.5.0-x86_64-i386-64bit,
stim/xp/M03-Anger-Apex.jpg,M03,Ang,Colère,cong,0.5,left,,,,,0,29,29,12,left,1,1.01739287376,emo_stroop,G2V3ysjepk,1440.0 * 900.0,60.37445571205458,eduroam-110016.grenet.fr,2019-04-23 14.33.17,Darwin-18.5.0-x86_64-i386-64bit,
stim/xp/F04-Anger-Apex.jpg,F04,Ang,Colère,cong,0.5,left,,,,,0,30,30,6,left,1,0.686404943466,emo_stroop,G2V3ysjepk,1440.0 * 900.0,60.37445571205458,eduroam-110016.grenet.fr,2019-04-23 14.33.17,Darwin-18.5.0-x86_64-i386-64bit,
stim/xp/F04-Joy-Apex.jpg,F04,Joy,Colère,incong,-0.5,right,,,,,0,31,31,27,right,1,0.903300046921,emo_stroop,G2V3ysjepk,1440.0 * 900.0,60.37445571205458,eduroam-110016.grenet.fr,2019-04-23 14.33.17,Darwin-18.5.0-x86_64-i386-64bit,
stim/xp/F02-Joy-Apex.jpg,F02,Joy,Joie,cong,0.5,right,,,,,0,32,32,3,right,1,0.8703520298,emo_stroop,G2V3ysjepk,1440.0 * 900.0,60.37445571205458,eduroam-110016.grenet.fr,2019-04-23 14.33.17,Darwin-18.5.0-x86_64-i386-64bit,
stim/xp/F02-Joy-Apex.jpg,F02,Joy,Colère,incong,-0.5,right,,,,,0,33,33,23,right,1,1.18660211563,emo_stroop,G2V3ysjepk,1440.0 * 900.0,60.37445571205458,eduroam-110016.grenet.fr,2019-04-23 14.33.17,Darwin-18.5.0-x86_64-i386-64bit,
stim/xp/M02-Joy-Apex.jpg,M02,Joy,Colère,incong,-0.5,right,,,,,0,34,34,31,right,1,1.55036091805,emo_stroop,G2V3ysjepk,1440.0 * 900.0,60.37445571205458,eduroam-110016.grenet.fr,2019-04-23 14.33.17,Darwin-18.5.0-x86_64-i386-64bit,
stim/xp/F02-Anger-Apex.jpg,F02,Ang,Colère,cong,0.5,left,,,,,0,35,35,2,left,1,0.719432115555,emo_stroop,G2V3ysjepk,1440.0 * 900.0,60.37445571205458,eduroam-110016.grenet.fr,2019-04-23 14.33.17,Darwin-18.5.0-x86_64-i386-64bit,
stim/xp/F03-Joy-Apex.jpg,F03,Joy,Colère,incong,-0.5,right,,,,,0,36,36,25,right,1,0.735697984695,emo_stroop,G2V3ysjepk,1440.0 * 900.0,60.37445571205458,eduroam-110016.grenet.fr,2019-04-23 14.33.17,Darwin-18.5.0-x86_64-i386-64bit,
stim/xp/M06-Anger-Apex.jpg,M06,Ang,Joie,incong,-0.5,left,,,,,0,37,37,36,left,1,0.566979885101,emo_stroop,G2V3ysjepk,1440.0 * 900.0,60.37445571205458,eduroam-110016.grenet.fr,2019-04-23 14.33.17,Darwin-18.5.0-x86_64-i386-64bit,
stim/xp/M08-Anger-Apex.jpg,M08,Ang,Colère,cong,0.5,left,,,,,0,38,38,18,left,1,0.585766077042,emo_stroop,G2V3ysjepk,1440.0 * 900.0,60.37445571205458,eduroam-110016.grenet.fr,2019-04-23 14.33.17,Darwin-18.5.0-x86_64-i386-64bit,
stim/xp/M02-Joy-Apex.jpg,M02,Joy,Joie,cong,0.5,right,,,,,0,39,39,11,right,1,0.7840321064,emo_stroop,G2V3ysjepk,1440.0 * 900.0,60.37445571205458,eduroam-110016.grenet.fr,2019-04-23 14.33.17,Darwin-18.5.0-x86_64-i386-64bit,
