stim,actor,emo,print_word,cong,congr,corr,train.thisRepN,train.thisTrialN,train.thisN,train.thisIndex,trials.thisRepN,trials.thisTrialN,trials.thisN,trials.thisIndex,resp.keys,resp.corr,resp.rt,expName,participant,screen,frameRate,session,date,computer,
stim/training/M11-Anger-Apex.jpg,M11,Ang,Joie,incong,-0.5,left,0,0,0,2,,,,,left,1,0.819486856461,emo_stroop,hrDnKsCMAX,1440.0 * 900.0,59.94954540841778,eduroam-009163.grenet.fr,2019-03-04 14.31.09,Darwin-18.2.0-x86_64-i386-64bit,
stim/training/M11-Anger-Apex.jpg,M11,Ang,Colère,cong,0.5,left,0,1,1,0,,,,,left,1,0.402391910553,emo_stroop,hrDnKsCMAX,1440.0 * 900.0,59.94954540841778,eduroam-009163.grenet.fr,2019-03-04 14.31.09,Darwin-18.2.0-x86_64-i386-64bit,
stim/training/M11-Joy-Apex.jpg,M11,Joy,Colère,incong,-0.5,right,0,2,2,3,,,,,right,1,0.369825124741,emo_stroop,hrDnKsCMAX,1440.0 * 900.0,59.94954540841778,eduroam-009163.grenet.fr,2019-03-04 14.31.09,Darwin-18.2.0-x86_64-i386-64bit,
stim/training/M11-Joy-Apex.jpg,M11,Joy,Joie,cong,0.5,right,0,3,3,1,,,,,right,1,0.385201931,emo_stroop,hrDnKsCMAX,1440.0 * 900.0,59.94954540841778,eduroam-009163.grenet.fr,2019-03-04 14.31.09,Darwin-18.2.0-x86_64-i386-64bit,
stim/xp/M02-Joy-Apex.jpg,M02,Joy,Colère,incong,-0.5,right,,,,,0,0,0,31,left,0,0.736073970795,emo_stroop,hrDnKsCMAX,1440.0 * 900.0,59.94954540841778,eduroam-009163.grenet.fr,2019-03-04 14.31.09,Darwin-18.2.0-x86_64-i386-64bit,
stim/xp/M06-Anger-Apex.jpg,M06,Ang,Joie,incong,-0.5,left,,,,,0,1,1,36,left,1,0.752878904343,emo_stroop,hrDnKsCMAX,1440.0 * 900.0,59.94954540841778,eduroam-009163.grenet.fr,2019-03-04 14.31.09,Darwin-18.2.0-x86_64-i386-64bit,
stim/xp/F02-Joy-Apex.jpg,F02,Joy,Colère,incong,-0.5,right,,,,,0,2,2,23,right,1,0.553217887878,emo_stroop,hrDnKsCMAX,1440.0 * 900.0,59.94954540841778,eduroam-009163.grenet.fr,2019-03-04 14.31.09,Darwin-18.2.0-x86_64-i386-64bit,
stim/xp/M08-Joy-Apex.jpg,M08,Joy,Colère,incong,-0.5,right,,,,,0,3,3,39,right,1,0.519533157349,emo_stroop,hrDnKsCMAX,1440.0 * 900.0,59.94954540841778,eduroam-009163.grenet.fr,2019-03-04 14.31.09,Darwin-18.2.0-x86_64-i386-64bit,
stim/xp/M06-Anger-Apex.jpg,M06,Ang,Colère,cong,0.5,left,,,,,0,4,4,16,left,1,0.519273042679,emo_stroop,hrDnKsCMAX,1440.0 * 900.0,59.94954540841778,eduroam-009163.grenet.fr,2019-03-04 14.31.09,Darwin-18.2.0-x86_64-i386-64bit,
stim/xp/M04-Anger-Apex.jpg,M04,Ang,Colère,cong,0.5,left,,,,,0,5,5,14,left,1,0.517051935196,emo_stroop,hrDnKsCMAX,1440.0 * 900.0,59.94954540841778,eduroam-009163.grenet.fr,2019-03-04 14.31.09,Darwin-18.2.0-x86_64-i386-64bit,
stim/xp/M04-Joy-Apex.jpg,M04,Joy,Joie,cong,0.5,right,,,,,0,6,6,15,right,1,0.469310998917,emo_stroop,hrDnKsCMAX,1440.0 * 900.0,59.94954540841778,eduroam-009163.grenet.fr,2019-03-04 14.31.09,Darwin-18.2.0-x86_64-i386-64bit,
stim/xp/F04-Joy-Apex.jpg,F04,Joy,Joie,cong,0.5,right,,,,,0,7,7,7,right,1,0.449918985367,emo_stroop,hrDnKsCMAX,1440.0 * 900.0,59.94954540841778,eduroam-009163.grenet.fr,2019-03-04 14.31.09,Darwin-18.2.0-x86_64-i386-64bit,
stim/xp/F02-Anger-Apex.jpg,F02,Ang,Colère,cong,0.5,left,,,,,0,8,8,2,left,1,0.502918958664,emo_stroop,hrDnKsCMAX,1440.0 * 900.0,59.94954540841778,eduroam-009163.grenet.fr,2019-03-04 14.31.09,Darwin-18.2.0-x86_64-i386-64bit,
stim/xp/F02-Anger-Apex.jpg,F02,Ang,Joie,incong,-0.5,left,,,,,0,9,9,22,left,1,0.453462123871,emo_stroop,hrDnKsCMAX,1440.0 * 900.0,59.94954540841778,eduroam-009163.grenet.fr,2019-03-04 14.31.09,Darwin-18.2.0-x86_64-i386-64bit,
stim/xp/M06-Joy-Apex.jpg,M06,Joy,Joie,cong,0.5,right,,,,,0,10,10,17,right,1,0.485605955124,emo_stroop,hrDnKsCMAX,1440.0 * 900.0,59.94954540841778,eduroam-009163.grenet.fr,2019-03-04 14.31.09,Darwin-18.2.0-x86_64-i386-64bit,
stim/xp/F01-Joy-Apex.jpg,F01,Joy,Joie,cong,0.5,right,,,,,0,11,11,1,right,1,0.470520973206,emo_stroop,hrDnKsCMAX,1440.0 * 900.0,59.94954540841778,eduroam-009163.grenet.fr,2019-03-04 14.31.09,Darwin-18.2.0-x86_64-i386-64bit,
stim/xp/F05-Joy-Apex.jpg,F05,Joy,Colère,incong,-0.5,right,,,,,0,12,12,29,right,1,0.552568912506,emo_stroop,hrDnKsCMAX,1440.0 * 900.0,59.94954540841778,eduroam-009163.grenet.fr,2019-03-04 14.31.09,Darwin-18.2.0-x86_64-i386-64bit,
stim/xp/F01-Joy-Apex.jpg,F01,Joy,Colère,incong,-0.5,right,,,,,0,13,13,21,right,1,0.519412994385,emo_stroop,hrDnKsCMAX,1440.0 * 900.0,59.94954540841778,eduroam-009163.grenet.fr,2019-03-04 14.31.09,Darwin-18.2.0-x86_64-i386-64bit,
stim/xp/F03-Anger-Apex.jpg,F03,Ang,Colère,cong,0.5,left,,,,,0,14,14,4,left,1,0.436130046844,emo_stroop,hrDnKsCMAX,1440.0 * 900.0,59.94954540841778,eduroam-009163.grenet.fr,2019-03-04 14.31.09,Darwin-18.2.0-x86_64-i386-64bit,
stim/xp/M02-Anger-Apex.jpg,M02,Ang,Joie,incong,-0.5,left,,,,,0,15,15,30,left,1,0.619405984879,emo_stroop,hrDnKsCMAX,1440.0 * 900.0,59.94954540841778,eduroam-009163.grenet.fr,2019-03-04 14.31.09,Darwin-18.2.0-x86_64-i386-64bit,
stim/xp/F05-Anger-Apex.jpg,F05,Ang,Colère,cong,0.5,left,,,,,0,16,16,8,left,1,0.635969161987,emo_stroop,hrDnKsCMAX,1440.0 * 900.0,59.94954540841778,eduroam-009163.grenet.fr,2019-03-04 14.31.09,Darwin-18.2.0-x86_64-i386-64bit,
stim/xp/F04-Joy-Apex.jpg,F04,Joy,Colère,incong,-0.5,right,,,,,0,17,17,27,right,1,0.667001008987,emo_stroop,hrDnKsCMAX,1440.0 * 900.0,59.94954540841778,eduroam-009163.grenet.fr,2019-03-04 14.31.09,Darwin-18.2.0-x86_64-i386-64bit,
stim/xp/F03-Joy-Apex.jpg,F03,Joy,Joie,cong,0.5,right,,,,,0,18,18,5,right,1,0.552670001984,emo_stroop,hrDnKsCMAX,1440.0 * 900.0,59.94954540841778,eduroam-009163.grenet.fr,2019-03-04 14.31.09,Darwin-18.2.0-x86_64-i386-64bit,
stim/xp/F05-Anger-Apex.jpg,F05,Ang,Joie,incong,-0.5,left,,,,,0,19,19,28,left,1,0.535952091217,emo_stroop,hrDnKsCMAX,1440.0 * 900.0,59.94954540841778,eduroam-009163.grenet.fr,2019-03-04 14.31.09,Darwin-18.2.0-x86_64-i386-64bit,
stim/xp/M03-Joy-Apex.jpg,M03,Joy,Joie,cong,0.5,right,,,,,0,20,20,13,right,1,0.552924871445,emo_stroop,hrDnKsCMAX,1440.0 * 900.0,59.94954540841778,eduroam-009163.grenet.fr,2019-03-04 14.31.09,Darwin-18.2.0-x86_64-i386-64bit,
stim/xp/F01-Anger-Apex.jpg,F01,Ang,Joie,incong,-0.5,left,,,,,0,21,21,20,left,1,0.619949102402,emo_stroop,hrDnKsCMAX,1440.0 * 900.0,59.94954540841778,eduroam-009163.grenet.fr,2019-03-04 14.31.09,Darwin-18.2.0-x86_64-i386-64bit,
stim/xp/F03-Joy-Apex.jpg,F03,Joy,Colère,incong,-0.5,right,,,,,0,22,22,25,right,1,0.602938890457,emo_stroop,hrDnKsCMAX,1440.0 * 900.0,59.94954540841778,eduroam-009163.grenet.fr,2019-03-04 14.31.09,Darwin-18.2.0-x86_64-i386-64bit,
stim/xp/M04-Joy-Apex.jpg,M04,Joy,Colère,incong,-0.5,right,,,,,0,23,23,35,left,0,0.969183921814,emo_stroop,hrDnKsCMAX,1440.0 * 900.0,59.94954540841778,eduroam-009163.grenet.fr,2019-03-04 14.31.09,Darwin-18.2.0-x86_64-i386-64bit,
stim/xp/F02-Joy-Apex.jpg,F02,Joy,Joie,cong,0.5,right,,,,,0,24,24,3,right,1,0.552949905396,emo_stroop,hrDnKsCMAX,1440.0 * 900.0,59.94954540841778,eduroam-009163.grenet.fr,2019-03-04 14.31.09,Darwin-18.2.0-x86_64-i386-64bit,
stim/xp/F05-Joy-Apex.jpg,F05,Joy,Joie,cong,0.5,right,,,,,0,25,25,9,right,1,0.600816011429,emo_stroop,hrDnKsCMAX,1440.0 * 900.0,59.94954540841778,eduroam-009163.grenet.fr,2019-03-04 14.31.09,Darwin-18.2.0-x86_64-i386-64bit,
stim/xp/F04-Anger-Apex.jpg,F04,Ang,Joie,incong,-0.5,left,,,,,0,26,26,26,left,1,0.569221973419,emo_stroop,hrDnKsCMAX,1440.0 * 900.0,59.94954540841778,eduroam-009163.grenet.fr,2019-03-04 14.31.09,Darwin-18.2.0-x86_64-i386-64bit,
stim/xp/F03-Anger-Apex.jpg,F03,Ang,Joie,incong,-0.5,left,,,,,0,27,27,24,left,1,0.550491094589,emo_stroop,hrDnKsCMAX,1440.0 * 900.0,59.94954540841778,eduroam-009163.grenet.fr,2019-03-04 14.31.09,Darwin-18.2.0-x86_64-i386-64bit,
stim/xp/F01-Anger-Apex.jpg,F01,Ang,Colère,cong,0.5,left,,,,,0,28,28,0,left,1,0.602745056152,emo_stroop,hrDnKsCMAX,1440.0 * 900.0,59.94954540841778,eduroam-009163.grenet.fr,2019-03-04 14.31.09,Darwin-18.2.0-x86_64-i386-64bit,
stim/xp/M03-Anger-Apex.jpg,M03,Ang,Joie,incong,-0.5,left,,,,,0,29,29,32,left,1,0.636633872986,emo_stroop,hrDnKsCMAX,1440.0 * 900.0,59.94954540841778,eduroam-009163.grenet.fr,2019-03-04 14.31.09,Darwin-18.2.0-x86_64-i386-64bit,
stim/xp/M03-Anger-Apex.jpg,M03,Ang,Colère,cong,0.5,left,,,,,0,30,30,12,left,1,0.752627849579,emo_stroop,hrDnKsCMAX,1440.0 * 900.0,59.94954540841778,eduroam-009163.grenet.fr,2019-03-04 14.31.09,Darwin-18.2.0-x86_64-i386-64bit,
stim/xp/M08-Anger-Apex.jpg,M08,Ang,Colère,cong,0.5,left,,,,,0,31,31,18,left,1,0.469614028931,emo_stroop,hrDnKsCMAX,1440.0 * 900.0,59.94954540841778,eduroam-009163.grenet.fr,2019-03-04 14.31.09,Darwin-18.2.0-x86_64-i386-64bit,
stim/xp/M08-Anger-Apex.jpg,M08,Ang,Joie,incong,-0.5,left,,,,,0,32,32,38,right,0,0.569396018982,emo_stroop,hrDnKsCMAX,1440.0 * 900.0,59.94954540841778,eduroam-009163.grenet.fr,2019-03-04 14.31.09,Darwin-18.2.0-x86_64-i386-64bit,
stim/xp/M04-Anger-Apex.jpg,M04,Ang,Joie,incong,-0.5,left,,,,,0,33,33,34,left,1,0.552001953125,emo_stroop,hrDnKsCMAX,1440.0 * 900.0,59.94954540841778,eduroam-009163.grenet.fr,2019-03-04 14.31.09,Darwin-18.2.0-x86_64-i386-64bit,
stim/xp/M08-Joy-Apex.jpg,M08,Joy,Joie,cong,0.5,right,,,,,0,34,34,19,right,1,0.553353071213,emo_stroop,hrDnKsCMAX,1440.0 * 900.0,59.94954540841778,eduroam-009163.grenet.fr,2019-03-04 14.31.09,Darwin-18.2.0-x86_64-i386-64bit,
stim/xp/M06-Joy-Apex.jpg,M06,Joy,Colère,incong,-0.5,right,,,,,0,35,35,37,left,0,0.786391973495,emo_stroop,hrDnKsCMAX,1440.0 * 900.0,59.94954540841778,eduroam-009163.grenet.fr,2019-03-04 14.31.09,Darwin-18.2.0-x86_64-i386-64bit,
stim/xp/M03-Joy-Apex.jpg,M03,Joy,Colère,incong,-0.5,right,,,,,0,36,36,33,left,0,0.452210903168,emo_stroop,hrDnKsCMAX,1440.0 * 900.0,59.94954540841778,eduroam-009163.grenet.fr,2019-03-04 14.31.09,Darwin-18.2.0-x86_64-i386-64bit,
stim/xp/M02-Joy-Apex.jpg,M02,Joy,Joie,cong,0.5,right,,,,,0,37,37,11,right,1,0.568701982498,emo_stroop,hrDnKsCMAX,1440.0 * 900.0,59.94954540841778,eduroam-009163.grenet.fr,2019-03-04 14.31.09,Darwin-18.2.0-x86_64-i386-64bit,
stim/xp/M02-Anger-Apex.jpg,M02,Ang,Colère,cong,0.5,left,,,,,0,38,38,10,left,1,0.620079040527,emo_stroop,hrDnKsCMAX,1440.0 * 900.0,59.94954540841778,eduroam-009163.grenet.fr,2019-03-04 14.31.09,Darwin-18.2.0-x86_64-i386-64bit,
stim/xp/F04-Anger-Apex.jpg,F04,Ang,Colère,cong,0.5,left,,,,,0,39,39,6,left,1,0.53345489502,emo_stroop,hrDnKsCMAX,1440.0 * 900.0,59.94954540841778,eduroam-009163.grenet.fr,2019-03-04 14.31.09,Darwin-18.2.0-x86_64-i386-64bit,
