stim,actor,emo,print_word,cong,congr,corr,train.thisRepN,train.thisTrialN,train.thisN,train.thisIndex,trials.thisRepN,trials.thisTrialN,trials.thisN,trials.thisIndex,resp.keys,resp.corr,resp.rt,expName,participant,screen,frameRate,session,date,computer,
stim/training/M11-Anger-Apex.jpg,M11,Ang,Joie,incong,-0.5,left,0,0,0,2,,,,,left,1,0.886128902435,emo_stroop,hUgp5xhOXg,1680 * 1850,None,brice-book,2019-03-02 19.22.48,Linux-4.13.0-32-generic-x86_64-with-Ubuntu-18.04-bionic,
stim/training/M11-Joy-Apex.jpg,M11,Joy,Colère,incong,-0.5,right,0,1,1,3,,,,,right,1,0.540400028229,emo_stroop,hUgp5xhOXg,1680 * 1850,None,brice-book,2019-03-02 19.22.48,Linux-4.13.0-32-generic-x86_64-with-Ubuntu-18.04-bionic,
stim/training/M11-Anger-Apex.jpg,M11,Ang,Colère,cong,0.5,left,0,2,2,0,,,,,left,1,0.50026011467,emo_stroop,hUgp5xhOXg,1680 * 1850,None,brice-book,2019-03-02 19.22.48,Linux-4.13.0-32-generic-x86_64-with-Ubuntu-18.04-bionic,
stim/training/M11-Joy-Apex.jpg,M11,Joy,Joie,cong,0.5,right,0,3,3,1,,,,,right,1,0.373193979263,emo_stroop,hUgp5xhOXg,1680 * 1850,None,brice-book,2019-03-02 19.22.48,Linux-4.13.0-32-generic-x86_64-with-Ubuntu-18.04-bionic,
stim/xp/M08-Anger-Apex.jpg,M08,Ang,Colère,cong,0.5,left,,,,,0,0,0,18,left,1,0.7521879673,emo_stroop,hUgp5xhOXg,1680 * 1850,None,brice-book,2019-03-02 19.22.48,Linux-4.13.0-32-generic-x86_64-with-Ubuntu-18.04-bionic,
stim/xp/M03-Joy-Apex.jpg,M03,Joy,Joie,cong,0.5,right,,,,,0,1,1,13,right,1,0.4699010849,emo_stroop,hUgp5xhOXg,1680 * 1850,None,brice-book,2019-03-02 19.22.48,Linux-4.13.0-32-generic-x86_64-with-Ubuntu-18.04-bionic,
stim/xp/M02-Anger-Apex.jpg,M02,Ang,Colère,cong,0.5,left,,,,,0,2,2,10,left,1,0.565853118896,emo_stroop,hUgp5xhOXg,1680 * 1850,None,brice-book,2019-03-02 19.22.48,Linux-4.13.0-32-generic-x86_64-with-Ubuntu-18.04-bionic,
stim/xp/F03-Joy-Apex.jpg,F03,Joy,Joie,cong,0.5,right,,,,,0,3,3,5,right,1,0.48539686203,emo_stroop,hUgp5xhOXg,1680 * 1850,None,brice-book,2019-03-02 19.22.48,Linux-4.13.0-32-generic-x86_64-with-Ubuntu-18.04-bionic,
stim/xp/M06-Anger-Apex.jpg,M06,Ang,Joie,incong,-0.5,left,,,,,0,4,4,36,left,1,0.4740421772,emo_stroop,hUgp5xhOXg,1680 * 1850,None,brice-book,2019-03-02 19.22.48,Linux-4.13.0-32-generic-x86_64-with-Ubuntu-18.04-bionic,
stim/xp/F04-Anger-Apex.jpg,F04,Ang,Colère,cong,0.5,left,,,,,0,5,5,6,left,1,0.492120981216,emo_stroop,hUgp5xhOXg,1680 * 1850,None,brice-book,2019-03-02 19.22.48,Linux-4.13.0-32-generic-x86_64-with-Ubuntu-18.04-bionic,
stim/xp/F04-Joy-Apex.jpg,F04,Joy,Colère,incong,-0.5,right,,,,,0,6,6,27,right,1,0.379164934158,emo_stroop,hUgp5xhOXg,1680 * 1850,None,brice-book,2019-03-02 19.22.48,Linux-4.13.0-32-generic-x86_64-with-Ubuntu-18.04-bionic,
stim/xp/M02-Anger-Apex.jpg,M02,Ang,Joie,incong,-0.5,left,,,,,0,7,7,30,left,1,0.433290958405,emo_stroop,hUgp5xhOXg,1680 * 1850,None,brice-book,2019-03-02 19.22.48,Linux-4.13.0-32-generic-x86_64-with-Ubuntu-18.04-bionic,
stim/xp/F05-Joy-Apex.jpg,F05,Joy,Joie,cong,0.5,right,,,,,0,8,8,9,right,1,0.459029912949,emo_stroop,hUgp5xhOXg,1680 * 1850,None,brice-book,2019-03-02 19.22.48,Linux-4.13.0-32-generic-x86_64-with-Ubuntu-18.04-bionic,
stim/xp/M06-Joy-Apex.jpg,M06,Joy,Joie,cong,0.5,right,,,,,0,9,9,17,right,1,0.460014104843,emo_stroop,hUgp5xhOXg,1680 * 1850,None,brice-book,2019-03-02 19.22.48,Linux-4.13.0-32-generic-x86_64-with-Ubuntu-18.04-bionic,
stim/xp/M06-Anger-Apex.jpg,M06,Ang,Colère,cong,0.5,left,,,,,0,10,10,16,right,0,0.392868995667,emo_stroop,hUgp5xhOXg,1680 * 1850,None,brice-book,2019-03-02 19.22.48,Linux-4.13.0-32-generic-x86_64-with-Ubuntu-18.04-bionic,
stim/xp/M03-Anger-Apex.jpg,M03,Ang,Joie,incong,-0.5,left,,,,,0,11,11,32,right,0,0.435646057129,emo_stroop,hUgp5xhOXg,1680 * 1850,None,brice-book,2019-03-02 19.22.48,Linux-4.13.0-32-generic-x86_64-with-Ubuntu-18.04-bionic,
stim/xp/F04-Anger-Apex.jpg,F04,Ang,Joie,incong,-0.5,left,,,,,0,12,12,26,left,1,0.595133066177,emo_stroop,hUgp5xhOXg,1680 * 1850,None,brice-book,2019-03-02 19.22.48,Linux-4.13.0-32-generic-x86_64-with-Ubuntu-18.04-bionic,
stim/xp/F02-Joy-Apex.jpg,F02,Joy,Colère,incong,-0.5,right,,,,,0,13,13,23,right,1,0.502068996429,emo_stroop,hUgp5xhOXg,1680 * 1850,None,brice-book,2019-03-02 19.22.48,Linux-4.13.0-32-generic-x86_64-with-Ubuntu-18.04-bionic,
stim/xp/M04-Joy-Apex.jpg,M04,Joy,Colère,incong,-0.5,right,,,,,0,14,14,35,right,1,0.64245390892,emo_stroop,hUgp5xhOXg,1680 * 1850,None,brice-book,2019-03-02 19.22.48,Linux-4.13.0-32-generic-x86_64-with-Ubuntu-18.04-bionic,
stim/xp/M03-Anger-Apex.jpg,M03,Ang,Colère,cong,0.5,left,,,,,0,15,15,12,left,1,0.471776008606,emo_stroop,hUgp5xhOXg,1680 * 1850,None,brice-book,2019-03-02 19.22.48,Linux-4.13.0-32-generic-x86_64-with-Ubuntu-18.04-bionic,
stim/xp/F05-Anger-Apex.jpg,F05,Ang,Colère,cong,0.5,left,,,,,0,16,16,8,left,1,0.46168589592,emo_stroop,hUgp5xhOXg,1680 * 1850,None,brice-book,2019-03-02 19.22.48,Linux-4.13.0-32-generic-x86_64-with-Ubuntu-18.04-bionic,
stim/xp/F02-Anger-Apex.jpg,F02,Ang,Colère,cong,0.5,left,,,,,0,17,17,2,left,1,0.505119085312,emo_stroop,hUgp5xhOXg,1680 * 1850,None,brice-book,2019-03-02 19.22.48,Linux-4.13.0-32-generic-x86_64-with-Ubuntu-18.04-bionic,
stim/xp/M03-Joy-Apex.jpg,M03,Joy,Colère,incong,-0.5,right,,,,,0,18,18,33,right,1,0.467855930328,emo_stroop,hUgp5xhOXg,1680 * 1850,None,brice-book,2019-03-02 19.22.48,Linux-4.13.0-32-generic-x86_64-with-Ubuntu-18.04-bionic,
stim/xp/F01-Anger-Apex.jpg,F01,Ang,Joie,incong,-0.5,left,,,,,0,19,19,20,right,0,0.579792022705,emo_stroop,hUgp5xhOXg,1680 * 1850,None,brice-book,2019-03-02 19.22.48,Linux-4.13.0-32-generic-x86_64-with-Ubuntu-18.04-bionic,
stim/xp/M02-Joy-Apex.jpg,M02,Joy,Joie,cong,0.5,right,,,,,0,20,20,11,right,1,0.577260971069,emo_stroop,hUgp5xhOXg,1680 * 1850,None,brice-book,2019-03-02 19.22.48,Linux-4.13.0-32-generic-x86_64-with-Ubuntu-18.04-bionic,
stim/xp/M06-Joy-Apex.jpg,M06,Joy,Colère,incong,-0.5,right,,,,,0,21,21,37,right,1,0.533512115479,emo_stroop,hUgp5xhOXg,1680 * 1850,None,brice-book,2019-03-02 19.22.48,Linux-4.13.0-32-generic-x86_64-with-Ubuntu-18.04-bionic,
stim/xp/F05-Joy-Apex.jpg,F05,Joy,Colère,incong,-0.5,right,,,,,0,22,22,29,left,0,0.555516004562,emo_stroop,hUgp5xhOXg,1680 * 1850,None,brice-book,2019-03-02 19.22.48,Linux-4.13.0-32-generic-x86_64-with-Ubuntu-18.04-bionic,
stim/xp/M04-Anger-Apex.jpg,M04,Ang,Colère,cong,0.5,left,,,,,0,23,23,14,left,1,0.435322999954,emo_stroop,hUgp5xhOXg,1680 * 1850,None,brice-book,2019-03-02 19.22.48,Linux-4.13.0-32-generic-x86_64-with-Ubuntu-18.04-bionic,
stim/xp/F02-Joy-Apex.jpg,F02,Joy,Joie,cong,0.5,right,,,,,0,24,24,3,right,1,0.432298898697,emo_stroop,hUgp5xhOXg,1680 * 1850,None,brice-book,2019-03-02 19.22.48,Linux-4.13.0-32-generic-x86_64-with-Ubuntu-18.04-bionic,
stim/xp/M04-Anger-Apex.jpg,M04,Ang,Joie,incong,-0.5,left,,,,,0,25,25,34,right,0,0.699947118759,emo_stroop,hUgp5xhOXg,1680 * 1850,None,brice-book,2019-03-02 19.22.48,Linux-4.13.0-32-generic-x86_64-with-Ubuntu-18.04-bionic,
stim/xp/M08-Anger-Apex.jpg,M08,Ang,Joie,incong,-0.5,left,,,,,0,26,26,38,left,1,0.520545005798,emo_stroop,hUgp5xhOXg,1680 * 1850,None,brice-book,2019-03-02 19.22.48,Linux-4.13.0-32-generic-x86_64-with-Ubuntu-18.04-bionic,
stim/xp/F03-Anger-Apex.jpg,F03,Ang,Colère,cong,0.5,left,,,,,0,27,27,4,left,1,0.534057855606,emo_stroop,hUgp5xhOXg,1680 * 1850,None,brice-book,2019-03-02 19.22.48,Linux-4.13.0-32-generic-x86_64-with-Ubuntu-18.04-bionic,
stim/xp/M02-Joy-Apex.jpg,M02,Joy,Colère,incong,-0.5,right,,,,,0,28,28,31,right,1,0.502987861633,emo_stroop,hUgp5xhOXg,1680 * 1850,None,brice-book,2019-03-02 19.22.48,Linux-4.13.0-32-generic-x86_64-with-Ubuntu-18.04-bionic,
stim/xp/F03-Anger-Apex.jpg,F03,Ang,Joie,incong,-0.5,left,,,,,0,29,29,24,left,1,0.521368980408,emo_stroop,hUgp5xhOXg,1680 * 1850,None,brice-book,2019-03-02 19.22.48,Linux-4.13.0-32-generic-x86_64-with-Ubuntu-18.04-bionic,
stim/xp/M08-Joy-Apex.jpg,M08,Joy,Joie,cong,0.5,right,,,,,0,30,30,19,left,0,0.484889984131,emo_stroop,hUgp5xhOXg,1680 * 1850,None,brice-book,2019-03-02 19.22.48,Linux-4.13.0-32-generic-x86_64-with-Ubuntu-18.04-bionic,
stim/xp/F01-Anger-Apex.jpg,F01,Ang,Colère,cong,0.5,left,,,,,0,31,31,0,right,0,0.436669826508,emo_stroop,hUgp5xhOXg,1680 * 1850,None,brice-book,2019-03-02 19.22.48,Linux-4.13.0-32-generic-x86_64-with-Ubuntu-18.04-bionic,
stim/xp/F05-Anger-Apex.jpg,F05,Ang,Joie,incong,-0.5,left,,,,,0,32,32,28,left,1,0.579236030579,emo_stroop,hUgp5xhOXg,1680 * 1850,None,brice-book,2019-03-02 19.22.48,Linux-4.13.0-32-generic-x86_64-with-Ubuntu-18.04-bionic,
stim/xp/F01-Joy-Apex.jpg,F01,Joy,Colère,incong,-0.5,right,,,,,0,33,33,21,right,1,0.65415596962,emo_stroop,hUgp5xhOXg,1680 * 1850,None,brice-book,2019-03-02 19.22.48,Linux-4.13.0-32-generic-x86_64-with-Ubuntu-18.04-bionic,
stim/xp/M04-Joy-Apex.jpg,M04,Joy,Joie,cong,0.5,right,,,,,0,34,34,15,right,1,0.523566961288,emo_stroop,hUgp5xhOXg,1680 * 1850,None,brice-book,2019-03-02 19.22.48,Linux-4.13.0-32-generic-x86_64-with-Ubuntu-18.04-bionic,
stim/xp/F03-Joy-Apex.jpg,F03,Joy,Colère,incong,-0.5,right,,,,,0,35,35,25,right,1,0.820076942444,emo_stroop,hUgp5xhOXg,1680 * 1850,None,brice-book,2019-03-02 19.22.48,Linux-4.13.0-32-generic-x86_64-with-Ubuntu-18.04-bionic,
stim/xp/M08-Joy-Apex.jpg,M08,Joy,Colère,incong,-0.5,right,,,,,0,36,36,39,right,1,0.975183963776,emo_stroop,hUgp5xhOXg,1680 * 1850,None,brice-book,2019-03-02 19.22.48,Linux-4.13.0-32-generic-x86_64-with-Ubuntu-18.04-bionic,
stim/xp/F02-Anger-Apex.jpg,F02,Ang,Joie,incong,-0.5,left,,,,,0,37,37,22,left,1,0.534072875977,emo_stroop,hUgp5xhOXg,1680 * 1850,None,brice-book,2019-03-02 19.22.48,Linux-4.13.0-32-generic-x86_64-with-Ubuntu-18.04-bionic,
stim/xp/F01-Joy-Apex.jpg,F01,Joy,Joie,cong,0.5,right,,,,,0,38,38,1,right,1,0.637527942657,emo_stroop,hUgp5xhOXg,1680 * 1850,None,brice-book,2019-03-02 19.22.48,Linux-4.13.0-32-generic-x86_64-with-Ubuntu-18.04-bionic,
stim/xp/F04-Joy-Apex.jpg,F04,Joy,Joie,cong,0.5,right,,,,,0,39,39,7,right,1,0.576616048813,emo_stroop,hUgp5xhOXg,1680 * 1850,None,brice-book,2019-03-02 19.22.48,Linux-4.13.0-32-generic-x86_64-with-Ubuntu-18.04-bionic,
