stim,actor,emo,print_word,cong,congr,corr,train.thisRepN,train.thisTrialN,train.thisN,train.thisIndex,trials.thisRepN,trials.thisTrialN,trials.thisN,trials.thisIndex,resp.keys,resp.corr,resp.rt,expName,participant,screen,frameRate,session,date,computer,
stim/training/M11-Joy-Apex.jpg,M11,Joy,Colère,incong,-0.5,right,0,0,0,3,,,,,right,1,0.484499931335,emo_stroop,Hx3UkQUc1Y,1440.0 * 900.0,59.961801068197666,eduroam-110101.grenet.fr,2019-03-04 11.45.32,Darwin-18.2.0-x86_64-i386-64bit,
stim/training/M11-Joy-Apex.jpg,M11,Joy,Joie,cong,0.5,right,0,1,1,1,,,,,right,1,0.402983903885,emo_stroop,Hx3UkQUc1Y,1440.0 * 900.0,59.961801068197666,eduroam-110101.grenet.fr,2019-03-04 11.45.32,Darwin-18.2.0-x86_64-i386-64bit,
stim/training/M11-Anger-Apex.jpg,M11,Ang,Colère,cong,0.5,left,0,2,2,0,,,,,left,1,0.386022090912,emo_stroop,Hx3UkQUc1Y,1440.0 * 900.0,59.961801068197666,eduroam-110101.grenet.fr,2019-03-04 11.45.32,Darwin-18.2.0-x86_64-i386-64bit,
stim/training/M11-Anger-Apex.jpg,M11,Ang,Joie,incong,-0.5,left,0,3,3,2,,,,,left,1,0.469343900681,emo_stroop,Hx3UkQUc1Y,1440.0 * 900.0,59.961801068197666,eduroam-110101.grenet.fr,2019-03-04 11.45.32,Darwin-18.2.0-x86_64-i386-64bit,
stim/xp/F01-Joy-Apex.jpg,F01,Joy,Joie,cong,0.5,right,,,,,0,0,0,1,right,1,0.386173963547,emo_stroop,Hx3UkQUc1Y,1440.0 * 900.0,59.961801068197666,eduroam-110101.grenet.fr,2019-03-04 11.45.32,Darwin-18.2.0-x86_64-i386-64bit,
stim/xp/F03-Anger-Apex.jpg,F03,Ang,Joie,incong,-0.5,left,,,,,0,1,1,24,left,1,0.369945049286,emo_stroop,Hx3UkQUc1Y,1440.0 * 900.0,59.961801068197666,eduroam-110101.grenet.fr,2019-03-04 11.45.32,Darwin-18.2.0-x86_64-i386-64bit,
stim/xp/M03-Joy-Apex.jpg,M03,Joy,Colère,incong,-0.5,right,,,,,0,2,2,33,right,1,0.500429153442,emo_stroop,Hx3UkQUc1Y,1440.0 * 900.0,59.961801068197666,eduroam-110101.grenet.fr,2019-03-04 11.45.32,Darwin-18.2.0-x86_64-i386-64bit,
stim/xp/M08-Anger-Apex.jpg,M08,Ang,Colère,cong,0.5,left,,,,,0,3,3,18,left,1,0.402422904968,emo_stroop,Hx3UkQUc1Y,1440.0 * 900.0,59.961801068197666,eduroam-110101.grenet.fr,2019-03-04 11.45.32,Darwin-18.2.0-x86_64-i386-64bit,
stim/xp/F05-Anger-Apex.jpg,F05,Ang,Joie,incong,-0.5,left,,,,,0,4,4,28,left,1,0.553086042404,emo_stroop,Hx3UkQUc1Y,1440.0 * 900.0,59.961801068197666,eduroam-110101.grenet.fr,2019-03-04 11.45.32,Darwin-18.2.0-x86_64-i386-64bit,
stim/xp/M02-Anger-Apex.jpg,M02,Ang,Joie,incong,-0.5,left,,,,,0,5,5,30,left,1,0.486186981201,emo_stroop,Hx3UkQUc1Y,1440.0 * 900.0,59.961801068197666,eduroam-110101.grenet.fr,2019-03-04 11.45.32,Darwin-18.2.0-x86_64-i386-64bit,
stim/xp/F04-Anger-Apex.jpg,F04,Ang,Joie,incong,-0.5,left,,,,,0,6,6,26,left,1,0.416965007782,emo_stroop,Hx3UkQUc1Y,1440.0 * 900.0,59.961801068197666,eduroam-110101.grenet.fr,2019-03-04 11.45.32,Darwin-18.2.0-x86_64-i386-64bit,
stim/xp/M02-Joy-Apex.jpg,M02,Joy,Joie,cong,0.5,right,,,,,0,7,7,11,right,1,0.549670934677,emo_stroop,Hx3UkQUc1Y,1440.0 * 900.0,59.961801068197666,eduroam-110101.grenet.fr,2019-03-04 11.45.32,Darwin-18.2.0-x86_64-i386-64bit,
stim/xp/F03-Joy-Apex.jpg,F03,Joy,Joie,cong,0.5,right,,,,,0,8,8,5,right,1,0.369071960449,emo_stroop,Hx3UkQUc1Y,1440.0 * 900.0,59.961801068197666,eduroam-110101.grenet.fr,2019-03-04 11.45.32,Darwin-18.2.0-x86_64-i386-64bit,
stim/xp/F05-Anger-Apex.jpg,F05,Ang,Colère,cong,0.5,left,,,,,0,9,9,8,left,1,0.352704048157,emo_stroop,Hx3UkQUc1Y,1440.0 * 900.0,59.961801068197666,eduroam-110101.grenet.fr,2019-03-04 11.45.32,Darwin-18.2.0-x86_64-i386-64bit,
stim/xp/F02-Joy-Apex.jpg,F02,Joy,Colère,incong,-0.5,right,,,,,0,10,10,23,right,1,0.41871213913,emo_stroop,Hx3UkQUc1Y,1440.0 * 900.0,59.961801068197666,eduroam-110101.grenet.fr,2019-03-04 11.45.32,Darwin-18.2.0-x86_64-i386-64bit,
stim/xp/M06-Joy-Apex.jpg,M06,Joy,Colère,incong,-0.5,right,,,,,0,11,11,37,right,1,0.40291595459,emo_stroop,Hx3UkQUc1Y,1440.0 * 900.0,59.961801068197666,eduroam-110101.grenet.fr,2019-03-04 11.45.32,Darwin-18.2.0-x86_64-i386-64bit,
stim/xp/M04-Anger-Apex.jpg,M04,Ang,Joie,incong,-0.5,left,,,,,0,12,12,34,left,1,0.502922058105,emo_stroop,Hx3UkQUc1Y,1440.0 * 900.0,59.961801068197666,eduroam-110101.grenet.fr,2019-03-04 11.45.32,Darwin-18.2.0-x86_64-i386-64bit,
stim/xp/F02-Anger-Apex.jpg,F02,Ang,Colère,cong,0.5,left,,,,,0,13,13,2,left,1,0.56946182251,emo_stroop,Hx3UkQUc1Y,1440.0 * 900.0,59.961801068197666,eduroam-110101.grenet.fr,2019-03-04 11.45.32,Darwin-18.2.0-x86_64-i386-64bit,
stim/xp/F04-Anger-Apex.jpg,F04,Ang,Colère,cong,0.5,left,,,,,0,14,14,6,left,1,0.435600042343,emo_stroop,Hx3UkQUc1Y,1440.0 * 900.0,59.961801068197666,eduroam-110101.grenet.fr,2019-03-04 11.45.32,Darwin-18.2.0-x86_64-i386-64bit,
stim/xp/M08-Joy-Apex.jpg,M08,Joy,Joie,cong,0.5,right,,,,,0,15,15,19,right,1,0.335876941681,emo_stroop,Hx3UkQUc1Y,1440.0 * 900.0,59.961801068197666,eduroam-110101.grenet.fr,2019-03-04 11.45.32,Darwin-18.2.0-x86_64-i386-64bit,
stim/xp/M03-Joy-Apex.jpg,M03,Joy,Joie,cong,0.5,right,,,,,0,16,16,13,right,1,0.369436979294,emo_stroop,Hx3UkQUc1Y,1440.0 * 900.0,59.961801068197666,eduroam-110101.grenet.fr,2019-03-04 11.45.32,Darwin-18.2.0-x86_64-i386-64bit,
stim/xp/M03-Anger-Apex.jpg,M03,Ang,Joie,incong,-0.5,left,,,,,0,17,17,32,left,1,0.352620840073,emo_stroop,Hx3UkQUc1Y,1440.0 * 900.0,59.961801068197666,eduroam-110101.grenet.fr,2019-03-04 11.45.32,Darwin-18.2.0-x86_64-i386-64bit,
stim/xp/M08-Anger-Apex.jpg,M08,Ang,Joie,incong,-0.5,left,,,,,0,18,18,38,left,1,0.386393070221,emo_stroop,Hx3UkQUc1Y,1440.0 * 900.0,59.961801068197666,eduroam-110101.grenet.fr,2019-03-04 11.45.32,Darwin-18.2.0-x86_64-i386-64bit,
stim/xp/M06-Anger-Apex.jpg,M06,Ang,Joie,incong,-0.5,left,,,,,0,19,19,36,left,1,0.467383861542,emo_stroop,Hx3UkQUc1Y,1440.0 * 900.0,59.961801068197666,eduroam-110101.grenet.fr,2019-03-04 11.45.32,Darwin-18.2.0-x86_64-i386-64bit,
stim/xp/F03-Anger-Apex.jpg,F03,Ang,Colère,cong,0.5,left,,,,,0,20,20,4,left,1,0.467176914215,emo_stroop,Hx3UkQUc1Y,1440.0 * 900.0,59.961801068197666,eduroam-110101.grenet.fr,2019-03-04 11.45.32,Darwin-18.2.0-x86_64-i386-64bit,
stim/xp/M04-Joy-Apex.jpg,M04,Joy,Colère,incong,-0.5,right,,,,,0,21,21,35,right,1,0.351834058762,emo_stroop,Hx3UkQUc1Y,1440.0 * 900.0,59.961801068197666,eduroam-110101.grenet.fr,2019-03-04 11.45.32,Darwin-18.2.0-x86_64-i386-64bit,
stim/xp/M04-Joy-Apex.jpg,M04,Joy,Joie,cong,0.5,right,,,,,0,22,22,15,right,1,0.351892948151,emo_stroop,Hx3UkQUc1Y,1440.0 * 900.0,59.961801068197666,eduroam-110101.grenet.fr,2019-03-04 11.45.32,Darwin-18.2.0-x86_64-i386-64bit,
stim/xp/F01-Anger-Apex.jpg,F01,Ang,Joie,incong,-0.5,left,,,,,0,23,23,20,left,1,0.350554943085,emo_stroop,Hx3UkQUc1Y,1440.0 * 900.0,59.961801068197666,eduroam-110101.grenet.fr,2019-03-04 11.45.32,Darwin-18.2.0-x86_64-i386-64bit,
stim/xp/F04-Joy-Apex.jpg,F04,Joy,Colère,incong,-0.5,right,,,,,0,24,24,27,right,1,0.319231033325,emo_stroop,Hx3UkQUc1Y,1440.0 * 900.0,59.961801068197666,eduroam-110101.grenet.fr,2019-03-04 11.45.32,Darwin-18.2.0-x86_64-i386-64bit,
stim/xp/M02-Anger-Apex.jpg,M02,Ang,Colère,cong,0.5,left,,,,,0,25,25,10,left,1,0.403055906296,emo_stroop,Hx3UkQUc1Y,1440.0 * 900.0,59.961801068197666,eduroam-110101.grenet.fr,2019-03-04 11.45.32,Darwin-18.2.0-x86_64-i386-64bit,
stim/xp/M06-Joy-Apex.jpg,M06,Joy,Joie,cong,0.5,right,,,,,0,26,26,17,right,1,0.3863260746,emo_stroop,Hx3UkQUc1Y,1440.0 * 900.0,59.961801068197666,eduroam-110101.grenet.fr,2019-03-04 11.45.32,Darwin-18.2.0-x86_64-i386-64bit,
stim/xp/M02-Joy-Apex.jpg,M02,Joy,Colère,incong,-0.5,right,,,,,0,27,27,31,right,1,0.452929019928,emo_stroop,Hx3UkQUc1Y,1440.0 * 900.0,59.961801068197666,eduroam-110101.grenet.fr,2019-03-04 11.45.32,Darwin-18.2.0-x86_64-i386-64bit,
stim/xp/F05-Joy-Apex.jpg,F05,Joy,Colère,incong,-0.5,right,,,,,0,28,28,29,right,1,0.601884841919,emo_stroop,Hx3UkQUc1Y,1440.0 * 900.0,59.961801068197666,eduroam-110101.grenet.fr,2019-03-04 11.45.32,Darwin-18.2.0-x86_64-i386-64bit,
stim/xp/F02-Anger-Apex.jpg,F02,Ang,Joie,incong,-0.5,left,,,,,0,29,29,22,left,1,0.43567109108,emo_stroop,Hx3UkQUc1Y,1440.0 * 900.0,59.961801068197666,eduroam-110101.grenet.fr,2019-03-04 11.45.32,Darwin-18.2.0-x86_64-i386-64bit,
stim/xp/M08-Joy-Apex.jpg,M08,Joy,Colère,incong,-0.5,right,,,,,0,30,30,39,right,1,0.500267028809,emo_stroop,Hx3UkQUc1Y,1440.0 * 900.0,59.961801068197666,eduroam-110101.grenet.fr,2019-03-04 11.45.32,Darwin-18.2.0-x86_64-i386-64bit,
stim/xp/M06-Anger-Apex.jpg,M06,Ang,Colère,cong,0.5,left,,,,,0,31,31,16,left,1,0.350364923477,emo_stroop,Hx3UkQUc1Y,1440.0 * 900.0,59.961801068197666,eduroam-110101.grenet.fr,2019-03-04 11.45.32,Darwin-18.2.0-x86_64-i386-64bit,
stim/xp/F04-Joy-Apex.jpg,F04,Joy,Joie,cong,0.5,right,,,,,0,32,32,7,right,1,0.450434923172,emo_stroop,Hx3UkQUc1Y,1440.0 * 900.0,59.961801068197666,eduroam-110101.grenet.fr,2019-03-04 11.45.32,Darwin-18.2.0-x86_64-i386-64bit,
stim/xp/F01-Joy-Apex.jpg,F01,Joy,Colère,incong,-0.5,right,,,,,0,33,33,21,right,1,0.419404983521,emo_stroop,Hx3UkQUc1Y,1440.0 * 900.0,59.961801068197666,eduroam-110101.grenet.fr,2019-03-04 11.45.32,Darwin-18.2.0-x86_64-i386-64bit,
stim/xp/M04-Anger-Apex.jpg,M04,Ang,Colère,cong,0.5,left,,,,,0,34,34,14,left,1,0.386106014252,emo_stroop,Hx3UkQUc1Y,1440.0 * 900.0,59.961801068197666,eduroam-110101.grenet.fr,2019-03-04 11.45.32,Darwin-18.2.0-x86_64-i386-64bit,
stim/xp/F01-Anger-Apex.jpg,F01,Ang,Colère,cong,0.5,left,,,,,0,35,35,0,left,1,0.369557142258,emo_stroop,Hx3UkQUc1Y,1440.0 * 900.0,59.961801068197666,eduroam-110101.grenet.fr,2019-03-04 11.45.32,Darwin-18.2.0-x86_64-i386-64bit,
stim/xp/F03-Joy-Apex.jpg,F03,Joy,Colère,incong,-0.5,right,,,,,0,36,36,25,right,1,0.436290025711,emo_stroop,Hx3UkQUc1Y,1440.0 * 900.0,59.961801068197666,eduroam-110101.grenet.fr,2019-03-04 11.45.32,Darwin-18.2.0-x86_64-i386-64bit,
stim/xp/F02-Joy-Apex.jpg,F02,Joy,Joie,cong,0.5,right,,,,,0,37,37,3,right,1,0.418876886368,emo_stroop,Hx3UkQUc1Y,1440.0 * 900.0,59.961801068197666,eduroam-110101.grenet.fr,2019-03-04 11.45.32,Darwin-18.2.0-x86_64-i386-64bit,
stim/xp/M03-Anger-Apex.jpg,M03,Ang,Colère,cong,0.5,left,,,,,0,38,38,12,left,1,0.352745056152,emo_stroop,Hx3UkQUc1Y,1440.0 * 900.0,59.961801068197666,eduroam-110101.grenet.fr,2019-03-04 11.45.32,Darwin-18.2.0-x86_64-i386-64bit,
stim/xp/F05-Joy-Apex.jpg,F05,Joy,Joie,cong,0.5,right,,,,,0,39,39,9,right,1,0.402674198151,emo_stroop,Hx3UkQUc1Y,1440.0 * 900.0,59.961801068197666,eduroam-110101.grenet.fr,2019-03-04 11.45.32,Darwin-18.2.0-x86_64-i386-64bit,
