stim,actor,emo,print_word,cong,congr,corr,train.thisRepN,train.thisTrialN,train.thisN,train.thisIndex,trials.thisRepN,trials.thisTrialN,trials.thisN,trials.thisIndex,resp.keys,resp.corr,resp.rt,expName,participant,screen,frameRate,session,date,computer,
stim/training/M11-Joy-Apex.jpg,M11,Joy,Joie,cong,0.5,right,0,0,0,1,,,,,right,1,0.588694095612,emo_stroop,J3qwumcLo2,1440.0 * 900.0,59.65554760648398,MacBook-Pro-de-Bret.local,2019-03-01 17.14.16,Darwin-18.2.0-x86_64-i386-64bit,
stim/training/M11-Anger-Apex.jpg,M11,Ang,Joie,incong,-0.5,left,0,1,1,2,,,,,left,1,0.736162900925,emo_stroop,J3qwumcLo2,1440.0 * 900.0,59.65554760648398,MacBook-Pro-de-Bret.local,2019-03-01 17.14.16,Darwin-18.2.0-x86_64-i386-64bit,
stim/training/M11-Anger-Apex.jpg,M11,Ang,Colère,cong,0.5,left,0,2,2,0,,,,,left,1,0.503638029099,emo_stroop,J3qwumcLo2,1440.0 * 900.0,59.65554760648398,MacBook-Pro-de-Bret.local,2019-03-01 17.14.16,Darwin-18.2.0-x86_64-i386-64bit,
stim/training/M11-Joy-Apex.jpg,M11,Joy,Colère,incong,-0.5,right,0,3,3,3,,,,,right,1,0.452282905579,emo_stroop,J3qwumcLo2,1440.0 * 900.0,59.65554760648398,MacBook-Pro-de-Bret.local,2019-03-01 17.14.16,Darwin-18.2.0-x86_64-i386-64bit,
stim/xp/M04-Anger-Apex.jpg,M04,Ang,Colère,cong,0.5,left,,,,,0,0,0,14,left,1,1.05366802216,emo_stroop,J3qwumcLo2,1440.0 * 900.0,59.65554760648398,MacBook-Pro-de-Bret.local,2019-03-01 17.14.16,Darwin-18.2.0-x86_64-i386-64bit,
stim/xp/M08-Anger-Apex.jpg,M08,Ang,Joie,incong,-0.5,left,,,,,0,1,1,38,left,1,0.619723796844,emo_stroop,J3qwumcLo2,1440.0 * 900.0,59.65554760648398,MacBook-Pro-de-Bret.local,2019-03-01 17.14.16,Darwin-18.2.0-x86_64-i386-64bit,
stim/xp/F02-Joy-Apex.jpg,F02,Joy,Joie,cong,0.5,right,,,,,0,2,2,3,right,1,0.402432918549,emo_stroop,J3qwumcLo2,1440.0 * 900.0,59.65554760648398,MacBook-Pro-de-Bret.local,2019-03-01 17.14.16,Darwin-18.2.0-x86_64-i386-64bit,
stim/xp/M03-Anger-Apex.jpg,M03,Ang,Joie,incong,-0.5,left,,,,,0,3,3,32,left,1,0.469717979431,emo_stroop,J3qwumcLo2,1440.0 * 900.0,59.65554760648398,MacBook-Pro-de-Bret.local,2019-03-01 17.14.16,Darwin-18.2.0-x86_64-i386-64bit,
stim/xp/F03-Joy-Apex.jpg,F03,Joy,Joie,cong,0.5,right,,,,,0,4,4,5,right,1,0.451462984085,emo_stroop,J3qwumcLo2,1440.0 * 900.0,59.65554760648398,MacBook-Pro-de-Bret.local,2019-03-01 17.14.16,Darwin-18.2.0-x86_64-i386-64bit,
stim/xp/M03-Joy-Apex.jpg,M03,Joy,Joie,cong,0.5,right,,,,,0,5,5,13,right,1,0.567065000534,emo_stroop,J3qwumcLo2,1440.0 * 900.0,59.65554760648398,MacBook-Pro-de-Bret.local,2019-03-01 17.14.16,Darwin-18.2.0-x86_64-i386-64bit,
stim/xp/F01-Joy-Apex.jpg,F01,Joy,Joie,cong,0.5,right,,,,,0,6,6,1,right,1,0.536287784576,emo_stroop,J3qwumcLo2,1440.0 * 900.0,59.65554760648398,MacBook-Pro-de-Bret.local,2019-03-01 17.14.16,Darwin-18.2.0-x86_64-i386-64bit,
stim/xp/F05-Joy-Apex.jpg,F05,Joy,Joie,cong,0.5,right,,,,,0,7,7,9,right,1,0.483561992645,emo_stroop,J3qwumcLo2,1440.0 * 900.0,59.65554760648398,MacBook-Pro-de-Bret.local,2019-03-01 17.14.16,Darwin-18.2.0-x86_64-i386-64bit,
stim/xp/M02-Joy-Apex.jpg,M02,Joy,Joie,cong,0.5,right,,,,,0,8,8,11,right,1,0.469364881516,emo_stroop,J3qwumcLo2,1440.0 * 900.0,59.65554760648398,MacBook-Pro-de-Bret.local,2019-03-01 17.14.16,Darwin-18.2.0-x86_64-i386-64bit,
stim/xp/M03-Anger-Apex.jpg,M03,Ang,Colère,cong,0.5,left,,,,,0,9,9,12,left,1,0.60401391983,emo_stroop,J3qwumcLo2,1440.0 * 900.0,59.65554760648398,MacBook-Pro-de-Bret.local,2019-03-01 17.14.16,Darwin-18.2.0-x86_64-i386-64bit,
stim/xp/F01-Anger-Apex.jpg,F01,Ang,Joie,incong,-0.5,left,,,,,0,10,10,20,left,1,0.70313000679,emo_stroop,J3qwumcLo2,1440.0 * 900.0,59.65554760648398,MacBook-Pro-de-Bret.local,2019-03-01 17.14.16,Darwin-18.2.0-x86_64-i386-64bit,
stim/xp/F04-Anger-Apex.jpg,F04,Ang,Colère,cong,0.5,left,,,,,0,11,11,6,left,1,0.533028841019,emo_stroop,J3qwumcLo2,1440.0 * 900.0,59.65554760648398,MacBook-Pro-de-Bret.local,2019-03-01 17.14.16,Darwin-18.2.0-x86_64-i386-64bit,
stim/xp/F05-Anger-Apex.jpg,F05,Ang,Colère,cong,0.5,left,,,,,0,12,12,8,left,1,0.620517969131,emo_stroop,J3qwumcLo2,1440.0 * 900.0,59.65554760648398,MacBook-Pro-de-Bret.local,2019-03-01 17.14.16,Darwin-18.2.0-x86_64-i386-64bit,
stim/xp/M02-Anger-Apex.jpg,M02,Ang,Joie,incong,-0.5,left,,,,,0,13,13,30,left,1,0.702619075775,emo_stroop,J3qwumcLo2,1440.0 * 900.0,59.65554760648398,MacBook-Pro-de-Bret.local,2019-03-01 17.14.16,Darwin-18.2.0-x86_64-i386-64bit,
stim/xp/F04-Anger-Apex.jpg,F04,Ang,Joie,incong,-0.5,left,,,,,0,14,14,26,right,0,0.436380147934,emo_stroop,J3qwumcLo2,1440.0 * 900.0,59.65554760648398,MacBook-Pro-de-Bret.local,2019-03-01 17.14.16,Darwin-18.2.0-x86_64-i386-64bit,
stim/xp/M04-Joy-Apex.jpg,M04,Joy,Colère,incong,-0.5,right,,,,,0,15,15,35,right,1,0.434947967529,emo_stroop,J3qwumcLo2,1440.0 * 900.0,59.65554760648398,MacBook-Pro-de-Bret.local,2019-03-01 17.14.16,Darwin-18.2.0-x86_64-i386-64bit,
stim/xp/M08-Anger-Apex.jpg,M08,Ang,Colère,cong,0.5,left,,,,,0,16,16,18,left,1,0.385684013367,emo_stroop,J3qwumcLo2,1440.0 * 900.0,59.65554760648398,MacBook-Pro-de-Bret.local,2019-03-01 17.14.16,Darwin-18.2.0-x86_64-i386-64bit,
stim/xp/F05-Anger-Apex.jpg,F05,Ang,Joie,incong,-0.5,left,,,,,0,17,17,28,left,1,0.402655124664,emo_stroop,J3qwumcLo2,1440.0 * 900.0,59.65554760648398,MacBook-Pro-de-Bret.local,2019-03-01 17.14.16,Darwin-18.2.0-x86_64-i386-64bit,
stim/xp/M04-Anger-Apex.jpg,M04,Ang,Joie,incong,-0.5,left,,,,,0,18,18,34,left,1,0.502947092056,emo_stroop,J3qwumcLo2,1440.0 * 900.0,59.65554760648398,MacBook-Pro-de-Bret.local,2019-03-01 17.14.16,Darwin-18.2.0-x86_64-i386-64bit,
stim/xp/M02-Anger-Apex.jpg,M02,Ang,Colère,cong,0.5,left,,,,,0,19,19,10,left,1,0.40291595459,emo_stroop,J3qwumcLo2,1440.0 * 900.0,59.65554760648398,MacBook-Pro-de-Bret.local,2019-03-01 17.14.16,Darwin-18.2.0-x86_64-i386-64bit,
stim/xp/F05-Joy-Apex.jpg,F05,Joy,Colère,incong,-0.5,right,,,,,0,20,20,29,right,1,0.536599159241,emo_stroop,J3qwumcLo2,1440.0 * 900.0,59.65554760648398,MacBook-Pro-de-Bret.local,2019-03-01 17.14.16,Darwin-18.2.0-x86_64-i386-64bit,
stim/xp/M06-Anger-Apex.jpg,M06,Ang,Joie,incong,-0.5,left,,,,,0,21,21,36,left,1,0.571271896362,emo_stroop,J3qwumcLo2,1440.0 * 900.0,59.65554760648398,MacBook-Pro-de-Bret.local,2019-03-01 17.14.16,Darwin-18.2.0-x86_64-i386-64bit,
stim/xp/F04-Joy-Apex.jpg,F04,Joy,Joie,cong,0.5,right,,,,,0,22,22,7,right,1,0.470818996429,emo_stroop,J3qwumcLo2,1440.0 * 900.0,59.65554760648398,MacBook-Pro-de-Bret.local,2019-03-01 17.14.16,Darwin-18.2.0-x86_64-i386-64bit,
stim/xp/F01-Joy-Apex.jpg,F01,Joy,Colère,incong,-0.5,right,,,,,0,23,23,21,right,1,0.418693065643,emo_stroop,J3qwumcLo2,1440.0 * 900.0,59.65554760648398,MacBook-Pro-de-Bret.local,2019-03-01 17.14.16,Darwin-18.2.0-x86_64-i386-64bit,
stim/xp/F04-Joy-Apex.jpg,F04,Joy,Colère,incong,-0.5,right,,,,,0,24,24,27,right,1,0.469676971436,emo_stroop,J3qwumcLo2,1440.0 * 900.0,59.65554760648398,MacBook-Pro-de-Bret.local,2019-03-01 17.14.16,Darwin-18.2.0-x86_64-i386-64bit,
stim/xp/F03-Anger-Apex.jpg,F03,Ang,Colère,cong,0.5,left,,,,,0,25,25,4,left,1,0.518615007401,emo_stroop,J3qwumcLo2,1440.0 * 900.0,59.65554760648398,MacBook-Pro-de-Bret.local,2019-03-01 17.14.16,Darwin-18.2.0-x86_64-i386-64bit,
stim/xp/M04-Joy-Apex.jpg,M04,Joy,Joie,cong,0.5,right,,,,,0,26,26,15,right,1,0.43573307991,emo_stroop,J3qwumcLo2,1440.0 * 900.0,59.65554760648398,MacBook-Pro-de-Bret.local,2019-03-01 17.14.16,Darwin-18.2.0-x86_64-i386-64bit,
stim/xp/M06-Joy-Apex.jpg,M06,Joy,Joie,cong,0.5,right,,,,,0,27,27,17,right,1,0.387665987015,emo_stroop,J3qwumcLo2,1440.0 * 900.0,59.65554760648398,MacBook-Pro-de-Bret.local,2019-03-01 17.14.16,Darwin-18.2.0-x86_64-i386-64bit,
stim/xp/F03-Anger-Apex.jpg,F03,Ang,Joie,incong,-0.5,left,,,,,0,28,28,24,left,1,0.486265182495,emo_stroop,J3qwumcLo2,1440.0 * 900.0,59.65554760648398,MacBook-Pro-de-Bret.local,2019-03-01 17.14.16,Darwin-18.2.0-x86_64-i386-64bit,
stim/xp/M06-Joy-Apex.jpg,M06,Joy,Colère,incong,-0.5,right,,,,,0,29,29,37,left,0,0.570808172226,emo_stroop,J3qwumcLo2,1440.0 * 900.0,59.65554760648398,MacBook-Pro-de-Bret.local,2019-03-01 17.14.16,Darwin-18.2.0-x86_64-i386-64bit,
stim/xp/M08-Joy-Apex.jpg,M08,Joy,Colère,incong,-0.5,right,,,,,0,30,30,39,right,1,0.436449050903,emo_stroop,J3qwumcLo2,1440.0 * 900.0,59.65554760648398,MacBook-Pro-de-Bret.local,2019-03-01 17.14.16,Darwin-18.2.0-x86_64-i386-64bit,
stim/xp/M02-Joy-Apex.jpg,M02,Joy,Colère,incong,-0.5,right,,,,,0,31,31,31,right,1,0.503767967224,emo_stroop,J3qwumcLo2,1440.0 * 900.0,59.65554760648398,MacBook-Pro-de-Bret.local,2019-03-01 17.14.16,Darwin-18.2.0-x86_64-i386-64bit,
stim/xp/F01-Anger-Apex.jpg,F01,Ang,Colère,cong,0.5,left,,,,,0,32,32,0,left,1,0.468825101852,emo_stroop,J3qwumcLo2,1440.0 * 900.0,59.65554760648398,MacBook-Pro-de-Bret.local,2019-03-01 17.14.16,Darwin-18.2.0-x86_64-i386-64bit,
stim/xp/F02-Anger-Apex.jpg,F02,Ang,Joie,incong,-0.5,left,,,,,0,33,33,22,right,0,0.353829145432,emo_stroop,J3qwumcLo2,1440.0 * 900.0,59.65554760648398,MacBook-Pro-de-Bret.local,2019-03-01 17.14.16,Darwin-18.2.0-x86_64-i386-64bit,
stim/xp/M03-Joy-Apex.jpg,M03,Joy,Colère,incong,-0.5,right,,,,,0,34,34,33,right,1,0.51962685585,emo_stroop,J3qwumcLo2,1440.0 * 900.0,59.65554760648398,MacBook-Pro-de-Bret.local,2019-03-01 17.14.16,Darwin-18.2.0-x86_64-i386-64bit,
stim/xp/F02-Anger-Apex.jpg,F02,Ang,Colère,cong,0.5,left,,,,,0,35,35,2,left,1,0.588093996048,emo_stroop,J3qwumcLo2,1440.0 * 900.0,59.65554760648398,MacBook-Pro-de-Bret.local,2019-03-01 17.14.16,Darwin-18.2.0-x86_64-i386-64bit,
stim/xp/M08-Joy-Apex.jpg,M08,Joy,Joie,cong,0.5,right,,,,,0,36,36,19,right,1,1.02078604698,emo_stroop,J3qwumcLo2,1440.0 * 900.0,59.65554760648398,MacBook-Pro-de-Bret.local,2019-03-01 17.14.16,Darwin-18.2.0-x86_64-i386-64bit,
stim/xp/F02-Joy-Apex.jpg,F02,Joy,Colère,incong,-0.5,right,,,,,0,37,37,23,right,1,0.403081893921,emo_stroop,J3qwumcLo2,1440.0 * 900.0,59.65554760648398,MacBook-Pro-de-Bret.local,2019-03-01 17.14.16,Darwin-18.2.0-x86_64-i386-64bit,
stim/xp/M06-Anger-Apex.jpg,M06,Ang,Colère,cong,0.5,left,,,,,0,38,38,16,left,1,0.536404848099,emo_stroop,J3qwumcLo2,1440.0 * 900.0,59.65554760648398,MacBook-Pro-de-Bret.local,2019-03-01 17.14.16,Darwin-18.2.0-x86_64-i386-64bit,
stim/xp/F03-Joy-Apex.jpg,F03,Joy,Colère,incong,-0.5,right,,,,,0,39,39,25,right,1,0.421048879623,emo_stroop,J3qwumcLo2,1440.0 * 900.0,59.65554760648398,MacBook-Pro-de-Bret.local,2019-03-01 17.14.16,Darwin-18.2.0-x86_64-i386-64bit,
