stim,actor,emo,print_word,cong,congr,corr,train.thisRepN,train.thisTrialN,train.thisN,train.thisIndex,trials.thisRepN,trials.thisTrialN,trials.thisN,trials.thisIndex,resp.keys,resp.corr,resp.rt,expName,participant,screen,frameRate,session,date,computer,
stim/training/M11-Anger-Apex.jpg,M11,Ang,Joie,incong,-0.5,left,0,0,0,2,,,,,left,1,0.837229967117,emo_stroop,mPd3HWr8nz,1440.0 * 900.0,60.370805907677074,eduroam-110101.grenet.fr,2019-03-05 13.14.11,Darwin-18.2.0-x86_64-i386-64bit,
stim/training/M11-Joy-Apex.jpg,M11,Joy,Colère,incong,-0.5,right,0,1,1,3,,,,,left,0,0.7530169487,emo_stroop,mPd3HWr8nz,1440.0 * 900.0,60.370805907677074,eduroam-110101.grenet.fr,2019-03-05 13.14.11,Darwin-18.2.0-x86_64-i386-64bit,
stim/training/M11-Anger-Apex.jpg,M11,Ang,Colère,cong,0.5,left,0,2,2,0,,,,,left,1,0.553226947784,emo_stroop,mPd3HWr8nz,1440.0 * 900.0,60.370805907677074,eduroam-110101.grenet.fr,2019-03-05 13.14.11,Darwin-18.2.0-x86_64-i386-64bit,
stim/training/M11-Joy-Apex.jpg,M11,Joy,Joie,cong,0.5,right,0,3,3,1,,,,,right,1,0.319533109665,emo_stroop,mPd3HWr8nz,1440.0 * 900.0,60.370805907677074,eduroam-110101.grenet.fr,2019-03-05 13.14.11,Darwin-18.2.0-x86_64-i386-64bit,
stim/xp/F05-Joy-Apex.jpg,F05,Joy,Joie,cong,0.5,right,,,,,0,0,0,9,right,1,0.453059196472,emo_stroop,mPd3HWr8nz,1440.0 * 900.0,60.370805907677074,eduroam-110101.grenet.fr,2019-03-05 13.14.11,Darwin-18.2.0-x86_64-i386-64bit,
stim/xp/F02-Anger-Apex.jpg,F02,Ang,Colère,cong,0.5,left,,,,,0,1,1,2,left,1,0.485613822937,emo_stroop,mPd3HWr8nz,1440.0 * 900.0,60.370805907677074,eduroam-110101.grenet.fr,2019-03-05 13.14.11,Darwin-18.2.0-x86_64-i386-64bit,
stim/xp/M02-Joy-Apex.jpg,M02,Joy,Joie,cong,0.5,right,,,,,0,2,2,11,right,1,0.569093942642,emo_stroop,mPd3HWr8nz,1440.0 * 900.0,60.370805907677074,eduroam-110101.grenet.fr,2019-03-05 13.14.11,Darwin-18.2.0-x86_64-i386-64bit,
stim/xp/M03-Anger-Apex.jpg,M03,Ang,Joie,incong,-0.5,left,,,,,0,3,3,32,left,1,0.401813030243,emo_stroop,mPd3HWr8nz,1440.0 * 900.0,60.370805907677074,eduroam-110101.grenet.fr,2019-03-05 13.14.11,Darwin-18.2.0-x86_64-i386-64bit,
stim/xp/F04-Anger-Apex.jpg,F04,Ang,Colère,cong,0.5,left,,,,,0,4,4,6,left,1,0.552828073502,emo_stroop,mPd3HWr8nz,1440.0 * 900.0,60.370805907677074,eduroam-110101.grenet.fr,2019-03-05 13.14.11,Darwin-18.2.0-x86_64-i386-64bit,
stim/xp/M03-Joy-Apex.jpg,M03,Joy,Colère,incong,-0.5,right,,,,,0,5,5,33,right,1,0.353101015091,emo_stroop,mPd3HWr8nz,1440.0 * 900.0,60.370805907677074,eduroam-110101.grenet.fr,2019-03-05 13.14.11,Darwin-18.2.0-x86_64-i386-64bit,
stim/xp/M04-Joy-Apex.jpg,M04,Joy,Colère,incong,-0.5,right,,,,,0,6,6,35,left,0,0.586383104324,emo_stroop,mPd3HWr8nz,1440.0 * 900.0,60.370805907677074,eduroam-110101.grenet.fr,2019-03-05 13.14.11,Darwin-18.2.0-x86_64-i386-64bit,
stim/xp/F03-Joy-Apex.jpg,F03,Joy,Colère,incong,-0.5,right,,,,,0,7,7,25,right,1,0.804334878922,emo_stroop,mPd3HWr8nz,1440.0 * 900.0,60.370805907677074,eduroam-110101.grenet.fr,2019-03-05 13.14.11,Darwin-18.2.0-x86_64-i386-64bit,
stim/xp/M06-Joy-Apex.jpg,M06,Joy,Colère,incong,-0.5,right,,,,,0,8,8,37,left,0,0.703252077103,emo_stroop,mPd3HWr8nz,1440.0 * 900.0,60.370805907677074,eduroam-110101.grenet.fr,2019-03-05 13.14.11,Darwin-18.2.0-x86_64-i386-64bit,
stim/xp/F05-Anger-Apex.jpg,F05,Ang,Colère,cong,0.5,left,,,,,0,9,9,8,left,1,0.485641956329,emo_stroop,mPd3HWr8nz,1440.0 * 900.0,60.370805907677074,eduroam-110101.grenet.fr,2019-03-05 13.14.11,Darwin-18.2.0-x86_64-i386-64bit,
stim/xp/F04-Anger-Apex.jpg,F04,Ang,Joie,incong,-0.5,left,,,,,0,10,10,26,left,1,0.536515951157,emo_stroop,mPd3HWr8nz,1440.0 * 900.0,60.370805907677074,eduroam-110101.grenet.fr,2019-03-05 13.14.11,Darwin-18.2.0-x86_64-i386-64bit,
stim/xp/F01-Anger-Apex.jpg,F01,Ang,Joie,incong,-0.5,left,,,,,0,11,11,20,left,1,0.58654999733,emo_stroop,mPd3HWr8nz,1440.0 * 900.0,60.370805907677074,eduroam-110101.grenet.fr,2019-03-05 13.14.11,Darwin-18.2.0-x86_64-i386-64bit,
stim/xp/F02-Joy-Apex.jpg,F02,Joy,Colère,incong,-0.5,right,,,,,0,12,12,23,right,1,0.435654878616,emo_stroop,mPd3HWr8nz,1440.0 * 900.0,60.370805907677074,eduroam-110101.grenet.fr,2019-03-05 13.14.11,Darwin-18.2.0-x86_64-i386-64bit,
stim/xp/M08-Anger-Apex.jpg,M08,Ang,Joie,incong,-0.5,left,,,,,0,13,13,38,left,1,0.686959028244,emo_stroop,mPd3HWr8nz,1440.0 * 900.0,60.370805907677074,eduroam-110101.grenet.fr,2019-03-05 13.14.11,Darwin-18.2.0-x86_64-i386-64bit,
stim/xp/M06-Anger-Apex.jpg,M06,Ang,Colère,cong,0.5,left,,,,,0,14,14,16,left,1,0.469484090805,emo_stroop,mPd3HWr8nz,1440.0 * 900.0,60.370805907677074,eduroam-110101.grenet.fr,2019-03-05 13.14.11,Darwin-18.2.0-x86_64-i386-64bit,
stim/xp/M02-Anger-Apex.jpg,M02,Ang,Colère,cong,0.5,left,,,,,0,15,15,10,left,1,0.669955015182,emo_stroop,mPd3HWr8nz,1440.0 * 900.0,60.370805907677074,eduroam-110101.grenet.fr,2019-03-05 13.14.11,Darwin-18.2.0-x86_64-i386-64bit,
stim/xp/F03-Joy-Apex.jpg,F03,Joy,Joie,cong,0.5,right,,,,,0,16,16,5,right,1,0.720321893692,emo_stroop,mPd3HWr8nz,1440.0 * 900.0,60.370805907677074,eduroam-110101.grenet.fr,2019-03-05 13.14.11,Darwin-18.2.0-x86_64-i386-64bit,
stim/xp/F05-Joy-Apex.jpg,F05,Joy,Colère,incong,-0.5,right,,,,,0,17,17,29,right,1,0.500305891037,emo_stroop,mPd3HWr8nz,1440.0 * 900.0,60.370805907677074,eduroam-110101.grenet.fr,2019-03-05 13.14.11,Darwin-18.2.0-x86_64-i386-64bit,
stim/xp/M04-Anger-Apex.jpg,M04,Ang,Colère,cong,0.5,left,,,,,0,18,18,14,left,1,0.452820062637,emo_stroop,mPd3HWr8nz,1440.0 * 900.0,60.370805907677074,eduroam-110101.grenet.fr,2019-03-05 13.14.11,Darwin-18.2.0-x86_64-i386-64bit,
stim/xp/M08-Anger-Apex.jpg,M08,Ang,Colère,cong,0.5,left,,,,,0,19,19,18,left,1,0.586276054382,emo_stroop,mPd3HWr8nz,1440.0 * 900.0,60.370805907677074,eduroam-110101.grenet.fr,2019-03-05 13.14.11,Darwin-18.2.0-x86_64-i386-64bit,
stim/xp/M04-Anger-Apex.jpg,M04,Ang,Joie,incong,-0.5,left,,,,,0,20,20,34,left,1,0.700149059296,emo_stroop,mPd3HWr8nz,1440.0 * 900.0,60.370805907677074,eduroam-110101.grenet.fr,2019-03-05 13.14.11,Darwin-18.2.0-x86_64-i386-64bit,
stim/xp/M02-Anger-Apex.jpg,M02,Ang,Joie,incong,-0.5,left,,,,,0,21,21,30,left,1,0.636228084564,emo_stroop,mPd3HWr8nz,1440.0 * 900.0,60.370805907677074,eduroam-110101.grenet.fr,2019-03-05 13.14.11,Darwin-18.2.0-x86_64-i386-64bit,
stim/xp/M03-Anger-Apex.jpg,M03,Ang,Colère,cong,0.5,left,,,,,0,22,22,12,left,1,0.502954006195,emo_stroop,mPd3HWr8nz,1440.0 * 900.0,60.370805907677074,eduroam-110101.grenet.fr,2019-03-05 13.14.11,Darwin-18.2.0-x86_64-i386-64bit,
stim/xp/F03-Anger-Apex.jpg,F03,Ang,Joie,incong,-0.5,left,,,,,0,23,23,24,left,1,0.452533006668,emo_stroop,mPd3HWr8nz,1440.0 * 900.0,60.370805907677074,eduroam-110101.grenet.fr,2019-03-05 13.14.11,Darwin-18.2.0-x86_64-i386-64bit,
stim/xp/M08-Joy-Apex.jpg,M08,Joy,Joie,cong,0.5,right,,,,,0,24,24,19,right,1,0.369412899017,emo_stroop,mPd3HWr8nz,1440.0 * 900.0,60.370805907677074,eduroam-110101.grenet.fr,2019-03-05 13.14.11,Darwin-18.2.0-x86_64-i386-64bit,
stim/xp/M04-Joy-Apex.jpg,M04,Joy,Joie,cong,0.5,right,,,,,0,25,25,15,right,1,0.503623962402,emo_stroop,mPd3HWr8nz,1440.0 * 900.0,60.370805907677074,eduroam-110101.grenet.fr,2019-03-05 13.14.11,Darwin-18.2.0-x86_64-i386-64bit,
stim/xp/M06-Anger-Apex.jpg,M06,Ang,Joie,incong,-0.5,left,,,,,0,26,26,36,left,1,0.38586306572,emo_stroop,mPd3HWr8nz,1440.0 * 900.0,60.370805907677074,eduroam-110101.grenet.fr,2019-03-05 13.14.11,Darwin-18.2.0-x86_64-i386-64bit,
stim/xp/F04-Joy-Apex.jpg,F04,Joy,Colère,incong,-0.5,right,,,,,0,27,27,27,right,1,0.352720022202,emo_stroop,mPd3HWr8nz,1440.0 * 900.0,60.370805907677074,eduroam-110101.grenet.fr,2019-03-05 13.14.11,Darwin-18.2.0-x86_64-i386-64bit,
stim/xp/F03-Anger-Apex.jpg,F03,Ang,Colère,cong,0.5,left,,,,,0,28,28,4,left,1,0.619440793991,emo_stroop,mPd3HWr8nz,1440.0 * 900.0,60.370805907677074,eduroam-110101.grenet.fr,2019-03-05 13.14.11,Darwin-18.2.0-x86_64-i386-64bit,
stim/xp/F01-Joy-Apex.jpg,F01,Joy,Colère,incong,-0.5,right,,,,,0,29,29,21,left,0,0.786436080933,emo_stroop,mPd3HWr8nz,1440.0 * 900.0,60.370805907677074,eduroam-110101.grenet.fr,2019-03-05 13.14.11,Darwin-18.2.0-x86_64-i386-64bit,
stim/xp/F02-Anger-Apex.jpg,F02,Ang,Joie,incong,-0.5,left,,,,,0,30,30,22,right,0,1.0034840107,emo_stroop,mPd3HWr8nz,1440.0 * 900.0,60.370805907677074,eduroam-110101.grenet.fr,2019-03-05 13.14.11,Darwin-18.2.0-x86_64-i386-64bit,
stim/xp/F02-Joy-Apex.jpg,F02,Joy,Joie,cong,0.5,right,,,,,0,31,31,3,right,1,0.486413002014,emo_stroop,mPd3HWr8nz,1440.0 * 900.0,60.370805907677074,eduroam-110101.grenet.fr,2019-03-05 13.14.11,Darwin-18.2.0-x86_64-i386-64bit,
stim/xp/M02-Joy-Apex.jpg,M02,Joy,Colère,incong,-0.5,right,,,,,0,32,32,31,left,0,0.667988061905,emo_stroop,mPd3HWr8nz,1440.0 * 900.0,60.370805907677074,eduroam-110101.grenet.fr,2019-03-05 13.14.11,Darwin-18.2.0-x86_64-i386-64bit,
stim/xp/F01-Joy-Apex.jpg,F01,Joy,Joie,cong,0.5,right,,,,,0,33,33,1,right,1,0.502993822098,emo_stroop,mPd3HWr8nz,1440.0 * 900.0,60.370805907677074,eduroam-110101.grenet.fr,2019-03-05 13.14.11,Darwin-18.2.0-x86_64-i386-64bit,
stim/xp/F04-Joy-Apex.jpg,F04,Joy,Joie,cong,0.5,right,,,,,0,34,34,7,right,1,0.50315618515,emo_stroop,mPd3HWr8nz,1440.0 * 900.0,60.370805907677074,eduroam-110101.grenet.fr,2019-03-05 13.14.11,Darwin-18.2.0-x86_64-i386-64bit,
stim/xp/M03-Joy-Apex.jpg,M03,Joy,Joie,cong,0.5,right,,,,,0,35,35,13,right,1,0.450601816177,emo_stroop,mPd3HWr8nz,1440.0 * 900.0,60.370805907677074,eduroam-110101.grenet.fr,2019-03-05 13.14.11,Darwin-18.2.0-x86_64-i386-64bit,
stim/xp/M06-Joy-Apex.jpg,M06,Joy,Joie,cong,0.5,right,,,,,0,36,36,17,right,1,0.452445983887,emo_stroop,mPd3HWr8nz,1440.0 * 900.0,60.370805907677074,eduroam-110101.grenet.fr,2019-03-05 13.14.11,Darwin-18.2.0-x86_64-i386-64bit,
stim/xp/M08-Joy-Apex.jpg,M08,Joy,Colère,incong,-0.5,right,,,,,0,37,37,39,right,1,0.452073097229,emo_stroop,mPd3HWr8nz,1440.0 * 900.0,60.370805907677074,eduroam-110101.grenet.fr,2019-03-05 13.14.11,Darwin-18.2.0-x86_64-i386-64bit,
stim/xp/F05-Anger-Apex.jpg,F05,Ang,Joie,incong,-0.5,left,,,,,0,38,38,28,left,1,0.552998065948,emo_stroop,mPd3HWr8nz,1440.0 * 900.0,60.370805907677074,eduroam-110101.grenet.fr,2019-03-05 13.14.11,Darwin-18.2.0-x86_64-i386-64bit,
stim/xp/F01-Anger-Apex.jpg,F01,Ang,Colère,cong,0.5,left,,,,,0,39,39,0,left,1,0.587029933929,emo_stroop,mPd3HWr8nz,1440.0 * 900.0,60.370805907677074,eduroam-110101.grenet.fr,2019-03-05 13.14.11,Darwin-18.2.0-x86_64-i386-64bit,
