stim,actor,emo,print_word,cong,congr,corr,train.thisRepN,train.thisTrialN,train.thisN,train.thisIndex,trials.thisRepN,trials.thisTrialN,trials.thisN,trials.thisIndex,resp.keys,resp.corr,resp.rt,expName,participant,screen,frameRate,session,date,computer,
stim/training/M11-Joy-Apex.jpg,M11,Joy,Joie,cong,0.5,right,0,0,0,1,,,,,None,0,,emo_stroop,rqAWyeaNIZ,1440.0 * 900.0,60.114946812017536,eduroam-110101.grenet.fr,2019-03-05 09.25.20,Darwin-18.2.0-x86_64-i386-64bit,
stim/training/M11-Anger-Apex.jpg,M11,Ang,Joie,incong,-0.5,left,0,1,1,2,,,,,left,1,0.086061000824,emo_stroop,rqAWyeaNIZ,1440.0 * 900.0,60.114946812017536,eduroam-110101.grenet.fr,2019-03-05 09.25.20,Darwin-18.2.0-x86_64-i386-64bit,
stim/training/M11-Joy-Apex.jpg,M11,Joy,Colère,incong,-0.5,right,0,2,2,3,,,,,right,1,1.25266981125,emo_stroop,rqAWyeaNIZ,1440.0 * 900.0,60.114946812017536,eduroam-110101.grenet.fr,2019-03-05 09.25.20,Darwin-18.2.0-x86_64-i386-64bit,
stim/training/M11-Anger-Apex.jpg,M11,Ang,Colère,cong,0.5,left,0,3,3,0,,,,,left,1,0.852041006088,emo_stroop,rqAWyeaNIZ,1440.0 * 900.0,60.114946812017536,eduroam-110101.grenet.fr,2019-03-05 09.25.20,Darwin-18.2.0-x86_64-i386-64bit,
stim/xp/F03-Anger-Apex.jpg,F03,Ang,Colère,cong,0.5,left,,,,,0,0,0,4,left,1,0.719903945923,emo_stroop,rqAWyeaNIZ,1440.0 * 900.0,60.114946812017536,eduroam-110101.grenet.fr,2019-03-05 09.25.20,Darwin-18.2.0-x86_64-i386-64bit,
stim/xp/M03-Joy-Apex.jpg,M03,Joy,Colère,incong,-0.5,right,,,,,0,1,1,33,right,1,0.467446088791,emo_stroop,rqAWyeaNIZ,1440.0 * 900.0,60.114946812017536,eduroam-110101.grenet.fr,2019-03-05 09.25.20,Darwin-18.2.0-x86_64-i386-64bit,
stim/xp/M02-Joy-Apex.jpg,M02,Joy,Colère,incong,-0.5,right,,,,,0,2,2,31,right,1,0.62061715126,emo_stroop,rqAWyeaNIZ,1440.0 * 900.0,60.114946812017536,eduroam-110101.grenet.fr,2019-03-05 09.25.20,Darwin-18.2.0-x86_64-i386-64bit,
stim/xp/F01-Anger-Apex.jpg,F01,Ang,Joie,incong,-0.5,left,,,,,0,3,3,20,left,1,0.418334960938,emo_stroop,rqAWyeaNIZ,1440.0 * 900.0,60.114946812017536,eduroam-110101.grenet.fr,2019-03-05 09.25.20,Darwin-18.2.0-x86_64-i386-64bit,
stim/xp/M06-Joy-Apex.jpg,M06,Joy,Joie,cong,0.5,right,,,,,0,4,4,17,right,1,0.586832046509,emo_stroop,rqAWyeaNIZ,1440.0 * 900.0,60.114946812017536,eduroam-110101.grenet.fr,2019-03-05 09.25.20,Darwin-18.2.0-x86_64-i386-64bit,
stim/xp/F05-Joy-Apex.jpg,F05,Joy,Colère,incong,-0.5,right,,,,,0,5,5,29,right,1,0.553020000458,emo_stroop,rqAWyeaNIZ,1440.0 * 900.0,60.114946812017536,eduroam-110101.grenet.fr,2019-03-05 09.25.20,Darwin-18.2.0-x86_64-i386-64bit,
stim/xp/M08-Joy-Apex.jpg,M08,Joy,Colère,incong,-0.5,right,,,,,0,6,6,39,right,1,0.485414028168,emo_stroop,rqAWyeaNIZ,1440.0 * 900.0,60.114946812017536,eduroam-110101.grenet.fr,2019-03-05 09.25.20,Darwin-18.2.0-x86_64-i386-64bit,
stim/xp/F05-Anger-Apex.jpg,F05,Ang,Colère,cong,0.5,left,,,,,0,7,7,8,left,1,0.586174964905,emo_stroop,rqAWyeaNIZ,1440.0 * 900.0,60.114946812017536,eduroam-110101.grenet.fr,2019-03-05 09.25.20,Darwin-18.2.0-x86_64-i386-64bit,
stim/xp/M08-Anger-Apex.jpg,M08,Ang,Colère,cong,0.5,left,,,,,0,8,8,18,left,1,0.519018888474,emo_stroop,rqAWyeaNIZ,1440.0 * 900.0,60.114946812017536,eduroam-110101.grenet.fr,2019-03-05 09.25.20,Darwin-18.2.0-x86_64-i386-64bit,
stim/xp/F03-Joy-Apex.jpg,F03,Joy,Joie,cong,0.5,right,,,,,0,9,9,5,right,1,0.600579023361,emo_stroop,rqAWyeaNIZ,1440.0 * 900.0,60.114946812017536,eduroam-110101.grenet.fr,2019-03-05 09.25.20,Darwin-18.2.0-x86_64-i386-64bit,
stim/xp/F01-Joy-Apex.jpg,F01,Joy,Joie,cong,0.5,right,,,,,0,10,10,1,right,1,0.636229038239,emo_stroop,rqAWyeaNIZ,1440.0 * 900.0,60.114946812017536,eduroam-110101.grenet.fr,2019-03-05 09.25.20,Darwin-18.2.0-x86_64-i386-64bit,
stim/xp/F02-Joy-Apex.jpg,F02,Joy,Colère,incong,-0.5,right,,,,,0,11,11,23,left,0,0.585494995117,emo_stroop,rqAWyeaNIZ,1440.0 * 900.0,60.114946812017536,eduroam-110101.grenet.fr,2019-03-05 09.25.20,Darwin-18.2.0-x86_64-i386-64bit,
stim/xp/F04-Joy-Apex.jpg,F04,Joy,Colère,incong,-0.5,right,,,,,0,12,12,27,left,0,0.769124984741,emo_stroop,rqAWyeaNIZ,1440.0 * 900.0,60.114946812017536,eduroam-110101.grenet.fr,2019-03-05 09.25.20,Darwin-18.2.0-x86_64-i386-64bit,
stim/xp/M06-Anger-Apex.jpg,M06,Ang,Colère,cong,0.5,left,,,,,0,13,13,16,left,1,0.786875009537,emo_stroop,rqAWyeaNIZ,1440.0 * 900.0,60.114946812017536,eduroam-110101.grenet.fr,2019-03-05 09.25.20,Darwin-18.2.0-x86_64-i386-64bit,
stim/xp/M03-Anger-Apex.jpg,M03,Ang,Joie,incong,-0.5,left,,,,,0,14,14,32,left,1,1.03605008125,emo_stroop,rqAWyeaNIZ,1440.0 * 900.0,60.114946812017536,eduroam-110101.grenet.fr,2019-03-05 09.25.20,Darwin-18.2.0-x86_64-i386-64bit,
stim/xp/M06-Joy-Apex.jpg,M06,Joy,Colère,incong,-0.5,right,,,,,0,15,15,37,right,1,0.619704008102,emo_stroop,rqAWyeaNIZ,1440.0 * 900.0,60.114946812017536,eduroam-110101.grenet.fr,2019-03-05 09.25.20,Darwin-18.2.0-x86_64-i386-64bit,
stim/xp/M04-Anger-Apex.jpg,M04,Ang,Colère,cong,0.5,left,,,,,0,16,16,14,left,1,0.436558961868,emo_stroop,rqAWyeaNIZ,1440.0 * 900.0,60.114946812017536,eduroam-110101.grenet.fr,2019-03-05 09.25.20,Darwin-18.2.0-x86_64-i386-64bit,
stim/xp/F01-Anger-Apex.jpg,F01,Ang,Colère,cong,0.5,left,,,,,0,17,17,0,left,1,0.619689941406,emo_stroop,rqAWyeaNIZ,1440.0 * 900.0,60.114946812017536,eduroam-110101.grenet.fr,2019-03-05 09.25.20,Darwin-18.2.0-x86_64-i386-64bit,
stim/xp/M02-Anger-Apex.jpg,M02,Ang,Colère,cong,0.5,left,,,,,0,18,18,10,left,1,0.469300985336,emo_stroop,rqAWyeaNIZ,1440.0 * 900.0,60.114946812017536,eduroam-110101.grenet.fr,2019-03-05 09.25.20,Darwin-18.2.0-x86_64-i386-64bit,
stim/xp/F04-Anger-Apex.jpg,F04,Ang,Joie,incong,-0.5,left,,,,,0,19,19,26,right,0,0.770551919937,emo_stroop,rqAWyeaNIZ,1440.0 * 900.0,60.114946812017536,eduroam-110101.grenet.fr,2019-03-05 09.25.20,Darwin-18.2.0-x86_64-i386-64bit,
stim/xp/F03-Anger-Apex.jpg,F03,Ang,Joie,incong,-0.5,left,,,,,0,20,20,24,left,1,0.650489091873,emo_stroop,rqAWyeaNIZ,1440.0 * 900.0,60.114946812017536,eduroam-110101.grenet.fr,2019-03-05 09.25.20,Darwin-18.2.0-x86_64-i386-64bit,
stim/xp/M03-Anger-Apex.jpg,M03,Ang,Colère,cong,0.5,left,,,,,0,21,21,12,left,1,0.5195748806,emo_stroop,rqAWyeaNIZ,1440.0 * 900.0,60.114946812017536,eduroam-110101.grenet.fr,2019-03-05 09.25.20,Darwin-18.2.0-x86_64-i386-64bit,
stim/xp/M04-Joy-Apex.jpg,M04,Joy,Colère,incong,-0.5,right,,,,,0,22,22,35,left,0,0.470383167267,emo_stroop,rqAWyeaNIZ,1440.0 * 900.0,60.114946812017536,eduroam-110101.grenet.fr,2019-03-05 09.25.20,Darwin-18.2.0-x86_64-i386-64bit,
stim/xp/F05-Joy-Apex.jpg,F05,Joy,Joie,cong,0.5,right,,,,,0,23,23,9,right,1,0.785323143005,emo_stroop,rqAWyeaNIZ,1440.0 * 900.0,60.114946812017536,eduroam-110101.grenet.fr,2019-03-05 09.25.20,Darwin-18.2.0-x86_64-i386-64bit,
stim/xp/F01-Joy-Apex.jpg,F01,Joy,Colère,incong,-0.5,right,,,,,0,24,24,21,right,1,0.53604388237,emo_stroop,rqAWyeaNIZ,1440.0 * 900.0,60.114946812017536,eduroam-110101.grenet.fr,2019-03-05 09.25.20,Darwin-18.2.0-x86_64-i386-64bit,
stim/xp/M02-Joy-Apex.jpg,M02,Joy,Joie,cong,0.5,right,,,,,0,25,25,11,right,1,0.403013944626,emo_stroop,rqAWyeaNIZ,1440.0 * 900.0,60.114946812017536,eduroam-110101.grenet.fr,2019-03-05 09.25.20,Darwin-18.2.0-x86_64-i386-64bit,
stim/xp/M06-Anger-Apex.jpg,M06,Ang,Joie,incong,-0.5,left,,,,,0,26,26,36,left,1,0.469530105591,emo_stroop,rqAWyeaNIZ,1440.0 * 900.0,60.114946812017536,eduroam-110101.grenet.fr,2019-03-05 09.25.20,Darwin-18.2.0-x86_64-i386-64bit,
stim/xp/F05-Anger-Apex.jpg,F05,Ang,Joie,incong,-0.5,left,,,,,0,27,27,28,left,1,0.502104043961,emo_stroop,rqAWyeaNIZ,1440.0 * 900.0,60.114946812017536,eduroam-110101.grenet.fr,2019-03-05 09.25.20,Darwin-18.2.0-x86_64-i386-64bit,
stim/xp/F02-Anger-Apex.jpg,F02,Ang,Colère,cong,0.5,left,,,,,0,28,28,2,left,1,0.419039964676,emo_stroop,rqAWyeaNIZ,1440.0 * 900.0,60.114946812017536,eduroam-110101.grenet.fr,2019-03-05 09.25.20,Darwin-18.2.0-x86_64-i386-64bit,
stim/xp/M03-Joy-Apex.jpg,M03,Joy,Joie,cong,0.5,right,,,,,0,29,29,13,right,1,0.552443981171,emo_stroop,rqAWyeaNIZ,1440.0 * 900.0,60.114946812017536,eduroam-110101.grenet.fr,2019-03-05 09.25.20,Darwin-18.2.0-x86_64-i386-64bit,
stim/xp/F03-Joy-Apex.jpg,F03,Joy,Colère,incong,-0.5,right,,,,,0,30,30,25,left,0,0.552263021469,emo_stroop,rqAWyeaNIZ,1440.0 * 900.0,60.114946812017536,eduroam-110101.grenet.fr,2019-03-05 09.25.20,Darwin-18.2.0-x86_64-i386-64bit,
stim/xp/F04-Anger-Apex.jpg,F04,Ang,Colère,cong,0.5,left,,,,,0,31,31,6,left,1,0.486294984818,emo_stroop,rqAWyeaNIZ,1440.0 * 900.0,60.114946812017536,eduroam-110101.grenet.fr,2019-03-05 09.25.20,Darwin-18.2.0-x86_64-i386-64bit,
stim/xp/M04-Anger-Apex.jpg,M04,Ang,Joie,incong,-0.5,left,,,,,0,32,32,34,left,1,1.08638811111,emo_stroop,rqAWyeaNIZ,1440.0 * 900.0,60.114946812017536,eduroam-110101.grenet.fr,2019-03-05 09.25.20,Darwin-18.2.0-x86_64-i386-64bit,
stim/xp/F04-Joy-Apex.jpg,F04,Joy,Joie,cong,0.5,right,,,,,0,33,33,7,left,0,0.669448852539,emo_stroop,rqAWyeaNIZ,1440.0 * 900.0,60.114946812017536,eduroam-110101.grenet.fr,2019-03-05 09.25.20,Darwin-18.2.0-x86_64-i386-64bit,
stim/xp/F02-Joy-Apex.jpg,F02,Joy,Joie,cong,0.5,right,,,,,0,34,34,3,right,1,0.817229986191,emo_stroop,rqAWyeaNIZ,1440.0 * 900.0,60.114946812017536,eduroam-110101.grenet.fr,2019-03-05 09.25.20,Darwin-18.2.0-x86_64-i386-64bit,
stim/xp/M08-Anger-Apex.jpg,M08,Ang,Joie,incong,-0.5,left,,,,,0,35,35,38,left,1,0.51704287529,emo_stroop,rqAWyeaNIZ,1440.0 * 900.0,60.114946812017536,eduroam-110101.grenet.fr,2019-03-05 09.25.20,Darwin-18.2.0-x86_64-i386-64bit,
stim/xp/M04-Joy-Apex.jpg,M04,Joy,Joie,cong,0.5,right,,,,,0,36,36,15,right,1,0.485248088837,emo_stroop,rqAWyeaNIZ,1440.0 * 900.0,60.114946812017536,eduroam-110101.grenet.fr,2019-03-05 09.25.20,Darwin-18.2.0-x86_64-i386-64bit,
stim/xp/M08-Joy-Apex.jpg,M08,Joy,Joie,cong,0.5,right,,,,,0,37,37,19,right,1,0.469108104706,emo_stroop,rqAWyeaNIZ,1440.0 * 900.0,60.114946812017536,eduroam-110101.grenet.fr,2019-03-05 09.25.20,Darwin-18.2.0-x86_64-i386-64bit,
stim/xp/M02-Anger-Apex.jpg,M02,Ang,Joie,incong,-0.5,left,,,,,0,38,38,30,right,0,0.469568014145,emo_stroop,rqAWyeaNIZ,1440.0 * 900.0,60.114946812017536,eduroam-110101.grenet.fr,2019-03-05 09.25.20,Darwin-18.2.0-x86_64-i386-64bit,
stim/xp/F02-Anger-Apex.jpg,F02,Ang,Joie,incong,-0.5,left,,,,,0,39,39,22,left,1,0.419036865234,emo_stroop,rqAWyeaNIZ,1440.0 * 900.0,60.114946812017536,eduroam-110101.grenet.fr,2019-03-05 09.25.20,Darwin-18.2.0-x86_64-i386-64bit,
