stim,actor,emo,print_word,cong,congr,corr,train.thisRepN,train.thisTrialN,train.thisN,train.thisIndex,trials.thisRepN,trials.thisTrialN,trials.thisN,trials.thisIndex,resp.keys,resp.corr,resp.rt,expName,participant,screen,frameRate,session,date,computer,
stim/training/M11-Joy-Apex.jpg,M11,Joy,Joie,cong,0.5,right,0,0,0,1,,,,,right,1,1.27043700218,emo_stroop,rrOLtK0u3a,1440.0 * 900.0,60.071983764266776,eduroam-009163.grenet.fr,2019-03-04 14.13.42,Darwin-18.2.0-x86_64-i386-64bit,
stim/training/M11-Joy-Apex.jpg,M11,Joy,Colère,incong,-0.5,right,0,1,1,3,,,,,left,0,0.386596918106,emo_stroop,rrOLtK0u3a,1440.0 * 900.0,60.071983764266776,eduroam-009163.grenet.fr,2019-03-04 14.13.42,Darwin-18.2.0-x86_64-i386-64bit,
stim/training/M11-Anger-Apex.jpg,M11,Ang,Joie,incong,-0.5,left,0,2,2,2,,,,,left,1,0.570118188858,emo_stroop,rrOLtK0u3a,1440.0 * 900.0,60.071983764266776,eduroam-009163.grenet.fr,2019-03-04 14.13.42,Darwin-18.2.0-x86_64-i386-64bit,
stim/training/M11-Anger-Apex.jpg,M11,Ang,Colère,cong,0.5,left,0,3,3,0,,,,,left,1,0.486092090607,emo_stroop,rrOLtK0u3a,1440.0 * 900.0,60.071983764266776,eduroam-009163.grenet.fr,2019-03-04 14.13.42,Darwin-18.2.0-x86_64-i386-64bit,
stim/xp/F04-Joy-Apex.jpg,F04,Joy,Joie,cong,0.5,right,,,,,0,0,0,7,right,1,0.503044128418,emo_stroop,rrOLtK0u3a,1440.0 * 900.0,60.071983764266776,eduroam-009163.grenet.fr,2019-03-04 14.13.42,Darwin-18.2.0-x86_64-i386-64bit,
stim/xp/F04-Anger-Apex.jpg,F04,Ang,Colère,cong,0.5,left,,,,,0,1,1,6,left,1,0.73618388176,emo_stroop,rrOLtK0u3a,1440.0 * 900.0,60.071983764266776,eduroam-009163.grenet.fr,2019-03-04 14.13.42,Darwin-18.2.0-x86_64-i386-64bit,
stim/xp/M02-Joy-Apex.jpg,M02,Joy,Colère,incong,-0.5,right,,,,,0,2,2,31,right,1,0.436167001724,emo_stroop,rrOLtK0u3a,1440.0 * 900.0,60.071983764266776,eduroam-009163.grenet.fr,2019-03-04 14.13.42,Darwin-18.2.0-x86_64-i386-64bit,
stim/xp/M08-Joy-Apex.jpg,M08,Joy,Joie,cong,0.5,right,,,,,0,3,3,19,right,1,0.619712114334,emo_stroop,rrOLtK0u3a,1440.0 * 900.0,60.071983764266776,eduroam-009163.grenet.fr,2019-03-04 14.13.42,Darwin-18.2.0-x86_64-i386-64bit,
stim/xp/M02-Anger-Apex.jpg,M02,Ang,Colère,cong,0.5,left,,,,,0,4,4,10,left,1,0.467190027237,emo_stroop,rrOLtK0u3a,1440.0 * 900.0,60.071983764266776,eduroam-009163.grenet.fr,2019-03-04 14.13.42,Darwin-18.2.0-x86_64-i386-64bit,
stim/xp/M06-Anger-Apex.jpg,M06,Ang,Joie,incong,-0.5,left,,,,,0,5,5,36,left,1,0.500621080399,emo_stroop,rrOLtK0u3a,1440.0 * 900.0,60.071983764266776,eduroam-009163.grenet.fr,2019-03-04 14.13.42,Darwin-18.2.0-x86_64-i386-64bit,
stim/xp/M04-Anger-Apex.jpg,M04,Ang,Joie,incong,-0.5,left,,,,,0,6,6,34,left,1,0.867216110229,emo_stroop,rrOLtK0u3a,1440.0 * 900.0,60.071983764266776,eduroam-009163.grenet.fr,2019-03-04 14.13.42,Darwin-18.2.0-x86_64-i386-64bit,
stim/xp/M03-Anger-Apex.jpg,M03,Ang,Joie,incong,-0.5,left,,,,,0,7,7,32,left,1,0.867526769638,emo_stroop,rrOLtK0u3a,1440.0 * 900.0,60.071983764266776,eduroam-009163.grenet.fr,2019-03-04 14.13.42,Darwin-18.2.0-x86_64-i386-64bit,
stim/xp/F04-Joy-Apex.jpg,F04,Joy,Colère,incong,-0.5,right,,,,,0,8,8,27,right,1,0.533591985703,emo_stroop,rrOLtK0u3a,1440.0 * 900.0,60.071983764266776,eduroam-009163.grenet.fr,2019-03-04 14.13.42,Darwin-18.2.0-x86_64-i386-64bit,
stim/xp/F03-Joy-Apex.jpg,F03,Joy,Colère,incong,-0.5,right,,,,,0,9,9,25,right,1,0.586859226227,emo_stroop,rrOLtK0u3a,1440.0 * 900.0,60.071983764266776,eduroam-009163.grenet.fr,2019-03-04 14.13.42,Darwin-18.2.0-x86_64-i386-64bit,
stim/xp/F04-Anger-Apex.jpg,F04,Ang,Joie,incong,-0.5,left,,,,,0,10,10,26,left,1,0.652435064316,emo_stroop,rrOLtK0u3a,1440.0 * 900.0,60.071983764266776,eduroam-009163.grenet.fr,2019-03-04 14.13.42,Darwin-18.2.0-x86_64-i386-64bit,
stim/xp/M06-Joy-Apex.jpg,M06,Joy,Colère,incong,-0.5,right,,,,,0,11,11,37,right,1,0.668619155884,emo_stroop,rrOLtK0u3a,1440.0 * 900.0,60.071983764266776,eduroam-009163.grenet.fr,2019-03-04 14.13.42,Darwin-18.2.0-x86_64-i386-64bit,
stim/xp/M02-Joy-Apex.jpg,M02,Joy,Joie,cong,0.5,right,,,,,0,12,12,11,right,1,0.603300094604,emo_stroop,rrOLtK0u3a,1440.0 * 900.0,60.071983764266776,eduroam-009163.grenet.fr,2019-03-04 14.13.42,Darwin-18.2.0-x86_64-i386-64bit,
stim/xp/M04-Joy-Apex.jpg,M04,Joy,Colère,incong,-0.5,right,,,,,0,13,13,35,right,1,0.537020921707,emo_stroop,rrOLtK0u3a,1440.0 * 900.0,60.071983764266776,eduroam-009163.grenet.fr,2019-03-04 14.13.42,Darwin-18.2.0-x86_64-i386-64bit,
stim/xp/M04-Anger-Apex.jpg,M04,Ang,Colère,cong,0.5,left,,,,,0,14,14,14,left,1,0.504672050476,emo_stroop,rrOLtK0u3a,1440.0 * 900.0,60.071983764266776,eduroam-009163.grenet.fr,2019-03-04 14.13.42,Darwin-18.2.0-x86_64-i386-64bit,
stim/xp/F01-Anger-Apex.jpg,F01,Ang,Joie,incong,-0.5,left,,,,,0,15,15,20,left,1,0.753540992737,emo_stroop,rrOLtK0u3a,1440.0 * 900.0,60.071983764266776,eduroam-009163.grenet.fr,2019-03-04 14.13.42,Darwin-18.2.0-x86_64-i386-64bit,
stim/xp/F05-Anger-Apex.jpg,F05,Ang,Colère,cong,0.5,left,,,,,0,16,16,8,left,1,0.570161819458,emo_stroop,rrOLtK0u3a,1440.0 * 900.0,60.071983764266776,eduroam-009163.grenet.fr,2019-03-04 14.13.42,Darwin-18.2.0-x86_64-i386-64bit,
stim/xp/F02-Joy-Apex.jpg,F02,Joy,Colère,incong,-0.5,right,,,,,0,17,17,23,left,0,1.15366697311,emo_stroop,rrOLtK0u3a,1440.0 * 900.0,60.071983764266776,eduroam-009163.grenet.fr,2019-03-04 14.13.42,Darwin-18.2.0-x86_64-i386-64bit,
stim/xp/F05-Anger-Apex.jpg,F05,Ang,Joie,incong,-0.5,left,,,,,0,18,18,28,left,1,0.637405872345,emo_stroop,rrOLtK0u3a,1440.0 * 900.0,60.071983764266776,eduroam-009163.grenet.fr,2019-03-04 14.13.42,Darwin-18.2.0-x86_64-i386-64bit,
stim/xp/F05-Joy-Apex.jpg,F05,Joy,Colère,incong,-0.5,right,,,,,0,19,19,29,right,1,0.603888034821,emo_stroop,rrOLtK0u3a,1440.0 * 900.0,60.071983764266776,eduroam-009163.grenet.fr,2019-03-04 14.13.42,Darwin-18.2.0-x86_64-i386-64bit,
stim/xp/M04-Joy-Apex.jpg,M04,Joy,Joie,cong,0.5,right,,,,,0,20,20,15,right,1,0.470180034637,emo_stroop,rrOLtK0u3a,1440.0 * 900.0,60.071983764266776,eduroam-009163.grenet.fr,2019-03-04 14.13.42,Darwin-18.2.0-x86_64-i386-64bit,
stim/xp/M03-Joy-Apex.jpg,M03,Joy,Colère,incong,-0.5,right,,,,,0,21,21,33,right,1,0.620228052139,emo_stroop,rrOLtK0u3a,1440.0 * 900.0,60.071983764266776,eduroam-009163.grenet.fr,2019-03-04 14.13.42,Darwin-18.2.0-x86_64-i386-64bit,
stim/xp/M03-Joy-Apex.jpg,M03,Joy,Joie,cong,0.5,right,,,,,0,22,22,13,right,1,0.536912918091,emo_stroop,rrOLtK0u3a,1440.0 * 900.0,60.071983764266776,eduroam-009163.grenet.fr,2019-03-04 14.13.42,Darwin-18.2.0-x86_64-i386-64bit,
stim/xp/M03-Anger-Apex.jpg,M03,Ang,Colère,cong,0.5,left,,,,,0,23,23,12,left,1,0.56990480423,emo_stroop,rrOLtK0u3a,1440.0 * 900.0,60.071983764266776,eduroam-009163.grenet.fr,2019-03-04 14.13.42,Darwin-18.2.0-x86_64-i386-64bit,
stim/xp/F01-Joy-Apex.jpg,F01,Joy,Colère,incong,-0.5,right,,,,,0,24,24,21,right,1,0.802489042282,emo_stroop,rrOLtK0u3a,1440.0 * 900.0,60.071983764266776,eduroam-009163.grenet.fr,2019-03-04 14.13.42,Darwin-18.2.0-x86_64-i386-64bit,
stim/xp/M08-Anger-Apex.jpg,M08,Ang,Joie,incong,-0.5,left,,,,,0,25,25,38,left,1,0.587071180344,emo_stroop,rrOLtK0u3a,1440.0 * 900.0,60.071983764266776,eduroam-009163.grenet.fr,2019-03-04 14.13.42,Darwin-18.2.0-x86_64-i386-64bit,
stim/xp/F03-Anger-Apex.jpg,F03,Ang,Colère,cong,0.5,left,,,,,0,26,26,4,left,1,0.552846908569,emo_stroop,rrOLtK0u3a,1440.0 * 900.0,60.071983764266776,eduroam-009163.grenet.fr,2019-03-04 14.13.42,Darwin-18.2.0-x86_64-i386-64bit,
stim/xp/F02-Anger-Apex.jpg,F02,Ang,Colère,cong,0.5,left,,,,,0,27,27,2,left,1,0.536515951157,emo_stroop,rrOLtK0u3a,1440.0 * 900.0,60.071983764266776,eduroam-009163.grenet.fr,2019-03-04 14.13.42,Darwin-18.2.0-x86_64-i386-64bit,
stim/xp/F01-Joy-Apex.jpg,F01,Joy,Joie,cong,0.5,right,,,,,0,28,28,1,right,1,0.553847074509,emo_stroop,rrOLtK0u3a,1440.0 * 900.0,60.071983764266776,eduroam-009163.grenet.fr,2019-03-04 14.13.42,Darwin-18.2.0-x86_64-i386-64bit,
stim/xp/F02-Joy-Apex.jpg,F02,Joy,Joie,cong,0.5,right,,,,,0,29,29,3,right,1,1.07585906982,emo_stroop,rrOLtK0u3a,1440.0 * 900.0,60.071983764266776,eduroam-009163.grenet.fr,2019-03-04 14.13.42,Darwin-18.2.0-x86_64-i386-64bit,
stim/xp/F01-Anger-Apex.jpg,F01,Ang,Colère,cong,0.5,left,,,,,0,30,30,0,left,1,0.537266969681,emo_stroop,rrOLtK0u3a,1440.0 * 900.0,60.071983764266776,eduroam-009163.grenet.fr,2019-03-04 14.13.42,Darwin-18.2.0-x86_64-i386-64bit,
stim/xp/F03-Joy-Apex.jpg,F03,Joy,Joie,cong,0.5,right,,,,,0,31,31,5,right,1,0.670465946198,emo_stroop,rrOLtK0u3a,1440.0 * 900.0,60.071983764266776,eduroam-009163.grenet.fr,2019-03-04 14.13.42,Darwin-18.2.0-x86_64-i386-64bit,
stim/xp/F03-Anger-Apex.jpg,F03,Ang,Joie,incong,-0.5,left,,,,,0,32,32,24,left,1,0.620470046997,emo_stroop,rrOLtK0u3a,1440.0 * 900.0,60.071983764266776,eduroam-009163.grenet.fr,2019-03-04 14.13.42,Darwin-18.2.0-x86_64-i386-64bit,
stim/xp/M08-Anger-Apex.jpg,M08,Ang,Colère,cong,0.5,left,,,,,0,33,33,18,left,1,0.470062017441,emo_stroop,rrOLtK0u3a,1440.0 * 900.0,60.071983764266776,eduroam-009163.grenet.fr,2019-03-04 14.13.42,Darwin-18.2.0-x86_64-i386-64bit,
stim/xp/F05-Joy-Apex.jpg,F05,Joy,Joie,cong,0.5,right,,,,,0,34,34,9,right,1,0.570397853851,emo_stroop,rrOLtK0u3a,1440.0 * 900.0,60.071983764266776,eduroam-009163.grenet.fr,2019-03-04 14.13.42,Darwin-18.2.0-x86_64-i386-64bit,
stim/xp/M08-Joy-Apex.jpg,M08,Joy,Colère,incong,-0.5,right,,,,,0,35,35,39,left,0,1.2527179718,emo_stroop,rrOLtK0u3a,1440.0 * 900.0,60.071983764266776,eduroam-009163.grenet.fr,2019-03-04 14.13.42,Darwin-18.2.0-x86_64-i386-64bit,
stim/xp/F02-Anger-Apex.jpg,F02,Ang,Joie,incong,-0.5,left,,,,,0,36,36,22,left,1,0.603698015213,emo_stroop,rrOLtK0u3a,1440.0 * 900.0,60.071983764266776,eduroam-009163.grenet.fr,2019-03-04 14.13.42,Darwin-18.2.0-x86_64-i386-64bit,
stim/xp/M06-Joy-Apex.jpg,M06,Joy,Joie,cong,0.5,right,,,,,0,37,37,17,right,1,0.570540904999,emo_stroop,rrOLtK0u3a,1440.0 * 900.0,60.071983764266776,eduroam-009163.grenet.fr,2019-03-04 14.13.42,Darwin-18.2.0-x86_64-i386-64bit,
stim/xp/M02-Anger-Apex.jpg,M02,Ang,Joie,incong,-0.5,left,,,,,0,38,38,30,left,1,0.85449886322,emo_stroop,rrOLtK0u3a,1440.0 * 900.0,60.071983764266776,eduroam-009163.grenet.fr,2019-03-04 14.13.42,Darwin-18.2.0-x86_64-i386-64bit,
stim/xp/M06-Anger-Apex.jpg,M06,Ang,Colère,cong,0.5,left,,,,,0,39,39,16,left,1,0.952950000763,emo_stroop,rrOLtK0u3a,1440.0 * 900.0,60.071983764266776,eduroam-009163.grenet.fr,2019-03-04 14.13.42,Darwin-18.2.0-x86_64-i386-64bit,
