stim,actor,emo,print_word,cong,congr,corr,train.thisRepN,train.thisTrialN,train.thisN,train.thisIndex,trials.thisRepN,trials.thisTrialN,trials.thisN,trials.thisIndex,resp.keys,resp.corr,resp.rt,expName,participant,screen,frameRate,session,date,computer,
stim/training/M11-Joy-Apex.jpg,M11,Joy,Colère,incong,-0.5,right,0,0,0,3,,,,,right,1,1.48671007156,emo_stroop,UFmOFvaLxw,1440.0 * 900.0,59.903909325137256,MacBook-Pro-de-Bret.local,2019-03-01 17.29.34,Darwin-18.2.0-x86_64-i386-64bit,
stim/training/M11-Joy-Apex.jpg,M11,Joy,Joie,cong,0.5,right,0,1,1,1,,,,,right,1,1.00303792953,emo_stroop,UFmOFvaLxw,1440.0 * 900.0,59.903909325137256,MacBook-Pro-de-Bret.local,2019-03-01 17.29.34,Darwin-18.2.0-x86_64-i386-64bit,
stim/training/M11-Anger-Apex.jpg,M11,Ang,Colère,cong,0.5,left,0,2,2,0,,,,,left,1,0.852285861969,emo_stroop,UFmOFvaLxw,1440.0 * 900.0,59.903909325137256,MacBook-Pro-de-Bret.local,2019-03-01 17.29.34,Darwin-18.2.0-x86_64-i386-64bit,
stim/training/M11-Anger-Apex.jpg,M11,Ang,Joie,incong,-0.5,left,0,3,3,2,,,,,left,1,0.902914047241,emo_stroop,UFmOFvaLxw,1440.0 * 900.0,59.903909325137256,MacBook-Pro-de-Bret.local,2019-03-01 17.29.34,Darwin-18.2.0-x86_64-i386-64bit,
stim/xp/F04-Anger-Apex.jpg,F04,Ang,Colère,cong,0.5,left,,,,,0,0,0,6,left,1,0.602673053741,emo_stroop,UFmOFvaLxw,1440.0 * 900.0,59.903909325137256,MacBook-Pro-de-Bret.local,2019-03-01 17.29.34,Darwin-18.2.0-x86_64-i386-64bit,
stim/xp/M02-Anger-Apex.jpg,M02,Ang,Colère,cong,0.5,left,,,,,0,1,1,10,left,1,0.619644165039,emo_stroop,UFmOFvaLxw,1440.0 * 900.0,59.903909325137256,MacBook-Pro-de-Bret.local,2019-03-01 17.29.34,Darwin-18.2.0-x86_64-i386-64bit,
stim/xp/F04-Anger-Apex.jpg,F04,Ang,Joie,incong,-0.5,left,,,,,0,2,2,26,left,1,0.469038963318,emo_stroop,UFmOFvaLxw,1440.0 * 900.0,59.903909325137256,MacBook-Pro-de-Bret.local,2019-03-01 17.29.34,Darwin-18.2.0-x86_64-i386-64bit,
stim/xp/M03-Anger-Apex.jpg,M03,Ang,Joie,incong,-0.5,left,,,,,0,3,3,32,left,1,0.60308599472,emo_stroop,UFmOFvaLxw,1440.0 * 900.0,59.903909325137256,MacBook-Pro-de-Bret.local,2019-03-01 17.29.34,Darwin-18.2.0-x86_64-i386-64bit,
stim/xp/F05-Joy-Apex.jpg,F05,Joy,Colère,incong,-0.5,right,,,,,0,4,4,29,right,1,0.637402057648,emo_stroop,UFmOFvaLxw,1440.0 * 900.0,59.903909325137256,MacBook-Pro-de-Bret.local,2019-03-01 17.29.34,Darwin-18.2.0-x86_64-i386-64bit,
stim/xp/M04-Anger-Apex.jpg,M04,Ang,Joie,incong,-0.5,left,,,,,0,5,5,34,left,1,0.619173049927,emo_stroop,UFmOFvaLxw,1440.0 * 900.0,59.903909325137256,MacBook-Pro-de-Bret.local,2019-03-01 17.29.34,Darwin-18.2.0-x86_64-i386-64bit,
stim/xp/M04-Anger-Apex.jpg,M04,Ang,Colère,cong,0.5,left,,,,,0,6,6,14,left,1,0.554468154907,emo_stroop,UFmOFvaLxw,1440.0 * 900.0,59.903909325137256,MacBook-Pro-de-Bret.local,2019-03-01 17.29.34,Darwin-18.2.0-x86_64-i386-64bit,
stim/xp/M06-Anger-Apex.jpg,M06,Ang,Colère,cong,0.5,left,,,,,0,7,7,16,left,1,0.752821207047,emo_stroop,UFmOFvaLxw,1440.0 * 900.0,59.903909325137256,MacBook-Pro-de-Bret.local,2019-03-01 17.29.34,Darwin-18.2.0-x86_64-i386-64bit,
stim/xp/F05-Joy-Apex.jpg,F05,Joy,Joie,cong,0.5,right,,,,,0,8,8,9,right,1,0.718770027161,emo_stroop,UFmOFvaLxw,1440.0 * 900.0,59.903909325137256,MacBook-Pro-de-Bret.local,2019-03-01 17.29.34,Darwin-18.2.0-x86_64-i386-64bit,
stim/xp/F01-Joy-Apex.jpg,F01,Joy,Joie,cong,0.5,right,,,,,0,9,9,1,right,1,0.653433084488,emo_stroop,UFmOFvaLxw,1440.0 * 900.0,59.903909325137256,MacBook-Pro-de-Bret.local,2019-03-01 17.29.34,Darwin-18.2.0-x86_64-i386-64bit,
stim/xp/F04-Joy-Apex.jpg,F04,Joy,Colère,incong,-0.5,right,,,,,0,10,10,27,right,1,0.786406993866,emo_stroop,UFmOFvaLxw,1440.0 * 900.0,59.903909325137256,MacBook-Pro-de-Bret.local,2019-03-01 17.29.34,Darwin-18.2.0-x86_64-i386-64bit,
stim/xp/M03-Joy-Apex.jpg,M03,Joy,Joie,cong,0.5,right,,,,,0,11,11,13,right,1,0.886615991592,emo_stroop,UFmOFvaLxw,1440.0 * 900.0,59.903909325137256,MacBook-Pro-de-Bret.local,2019-03-01 17.29.34,Darwin-18.2.0-x86_64-i386-64bit,
stim/xp/F01-Joy-Apex.jpg,F01,Joy,Colère,incong,-0.5,right,,,,,0,12,12,21,right,1,0.883860111237,emo_stroop,UFmOFvaLxw,1440.0 * 900.0,59.903909325137256,MacBook-Pro-de-Bret.local,2019-03-01 17.29.34,Darwin-18.2.0-x86_64-i386-64bit,
stim/xp/M04-Joy-Apex.jpg,M04,Joy,Colère,incong,-0.5,right,,,,,0,13,13,35,left,0,0.850335121155,emo_stroop,UFmOFvaLxw,1440.0 * 900.0,59.903909325137256,MacBook-Pro-de-Bret.local,2019-03-01 17.29.34,Darwin-18.2.0-x86_64-i386-64bit,
stim/xp/F03-Joy-Apex.jpg,F03,Joy,Colère,incong,-0.5,right,,,,,0,14,14,25,right,1,0.919814825058,emo_stroop,UFmOFvaLxw,1440.0 * 900.0,59.903909325137256,MacBook-Pro-de-Bret.local,2019-03-01 17.29.34,Darwin-18.2.0-x86_64-i386-64bit,
stim/xp/M08-Anger-Apex.jpg,M08,Ang,Colère,cong,0.5,left,,,,,0,15,15,18,left,1,0.536653995514,emo_stroop,UFmOFvaLxw,1440.0 * 900.0,59.903909325137256,MacBook-Pro-de-Bret.local,2019-03-01 17.29.34,Darwin-18.2.0-x86_64-i386-64bit,
stim/xp/F02-Anger-Apex.jpg,F02,Ang,Colère,cong,0.5,left,,,,,0,16,16,2,left,1,1.23647594452,emo_stroop,UFmOFvaLxw,1440.0 * 900.0,59.903909325137256,MacBook-Pro-de-Bret.local,2019-03-01 17.29.34,Darwin-18.2.0-x86_64-i386-64bit,
stim/xp/F02-Joy-Apex.jpg,F02,Joy,Colère,incong,-0.5,right,,,,,0,17,17,23,right,1,0.819281101227,emo_stroop,UFmOFvaLxw,1440.0 * 900.0,59.903909325137256,MacBook-Pro-de-Bret.local,2019-03-01 17.29.34,Darwin-18.2.0-x86_64-i386-64bit,
stim/xp/F01-Anger-Apex.jpg,F01,Ang,Colère,cong,0.5,left,,,,,0,18,18,0,left,1,0.786149978638,emo_stroop,UFmOFvaLxw,1440.0 * 900.0,59.903909325137256,MacBook-Pro-de-Bret.local,2019-03-01 17.29.34,Darwin-18.2.0-x86_64-i386-64bit,
stim/xp/F03-Anger-Apex.jpg,F03,Ang,Joie,incong,-0.5,left,,,,,0,19,19,24,left,1,0.633937120438,emo_stroop,UFmOFvaLxw,1440.0 * 900.0,59.903909325137256,MacBook-Pro-de-Bret.local,2019-03-01 17.29.34,Darwin-18.2.0-x86_64-i386-64bit,
stim/xp/M02-Joy-Apex.jpg,M02,Joy,Joie,cong,0.5,right,,,,,0,20,20,11,right,1,0.619663000107,emo_stroop,UFmOFvaLxw,1440.0 * 900.0,59.903909325137256,MacBook-Pro-de-Bret.local,2019-03-01 17.29.34,Darwin-18.2.0-x86_64-i386-64bit,
stim/xp/F02-Anger-Apex.jpg,F02,Ang,Joie,incong,-0.5,left,,,,,0,21,21,22,left,1,0.686309099197,emo_stroop,UFmOFvaLxw,1440.0 * 900.0,59.903909325137256,MacBook-Pro-de-Bret.local,2019-03-01 17.29.34,Darwin-18.2.0-x86_64-i386-64bit,
stim/xp/F03-Joy-Apex.jpg,F03,Joy,Joie,cong,0.5,right,,,,,0,22,22,5,right,1,0.719147205353,emo_stroop,UFmOFvaLxw,1440.0 * 900.0,59.903909325137256,MacBook-Pro-de-Bret.local,2019-03-01 17.29.34,Darwin-18.2.0-x86_64-i386-64bit,
stim/xp/M06-Joy-Apex.jpg,M06,Joy,Joie,cong,0.5,right,,,,,0,23,23,17,right,1,0.617109060287,emo_stroop,UFmOFvaLxw,1440.0 * 900.0,59.903909325137256,MacBook-Pro-de-Bret.local,2019-03-01 17.29.34,Darwin-18.2.0-x86_64-i386-64bit,
stim/xp/F01-Anger-Apex.jpg,F01,Ang,Joie,incong,-0.5,left,,,,,0,24,24,20,right,0,1.06715202332,emo_stroop,UFmOFvaLxw,1440.0 * 900.0,59.903909325137256,MacBook-Pro-de-Bret.local,2019-03-01 17.29.34,Darwin-18.2.0-x86_64-i386-64bit,
stim/xp/F02-Joy-Apex.jpg,F02,Joy,Joie,cong,0.5,right,,,,,0,25,25,3,right,1,0.48592209816,emo_stroop,UFmOFvaLxw,1440.0 * 900.0,59.903909325137256,MacBook-Pro-de-Bret.local,2019-03-01 17.29.34,Darwin-18.2.0-x86_64-i386-64bit,
stim/xp/M04-Joy-Apex.jpg,M04,Joy,Joie,cong,0.5,right,,,,,0,26,26,15,right,1,0.585562944412,emo_stroop,UFmOFvaLxw,1440.0 * 900.0,59.903909325137256,MacBook-Pro-de-Bret.local,2019-03-01 17.29.34,Darwin-18.2.0-x86_64-i386-64bit,
stim/xp/M06-Joy-Apex.jpg,M06,Joy,Colère,incong,-0.5,right,,,,,0,27,27,37,right,1,0.603334903717,emo_stroop,UFmOFvaLxw,1440.0 * 900.0,59.903909325137256,MacBook-Pro-de-Bret.local,2019-03-01 17.29.34,Darwin-18.2.0-x86_64-i386-64bit,
stim/xp/M08-Joy-Apex.jpg,M08,Joy,Joie,cong,0.5,right,,,,,0,28,28,19,right,1,0.503098964691,emo_stroop,UFmOFvaLxw,1440.0 * 900.0,59.903909325137256,MacBook-Pro-de-Bret.local,2019-03-01 17.29.34,Darwin-18.2.0-x86_64-i386-64bit,
stim/xp/F04-Joy-Apex.jpg,F04,Joy,Joie,cong,0.5,right,,,,,0,29,29,7,right,1,0.633636951447,emo_stroop,UFmOFvaLxw,1440.0 * 900.0,59.903909325137256,MacBook-Pro-de-Bret.local,2019-03-01 17.29.34,Darwin-18.2.0-x86_64-i386-64bit,
stim/xp/M08-Anger-Apex.jpg,M08,Ang,Joie,incong,-0.5,left,,,,,0,30,30,38,left,1,0.61670589447,emo_stroop,UFmOFvaLxw,1440.0 * 900.0,59.903909325137256,MacBook-Pro-de-Bret.local,2019-03-01 17.29.34,Darwin-18.2.0-x86_64-i386-64bit,
stim/xp/M06-Anger-Apex.jpg,M06,Ang,Joie,incong,-0.5,left,,,,,0,31,31,36,left,1,0.837322950363,emo_stroop,UFmOFvaLxw,1440.0 * 900.0,59.903909325137256,MacBook-Pro-de-Bret.local,2019-03-01 17.29.34,Darwin-18.2.0-x86_64-i386-64bit,
stim/xp/F03-Anger-Apex.jpg,F03,Ang,Colère,cong,0.5,left,,,,,0,32,32,4,left,1,0.718731880188,emo_stroop,UFmOFvaLxw,1440.0 * 900.0,59.903909325137256,MacBook-Pro-de-Bret.local,2019-03-01 17.29.34,Darwin-18.2.0-x86_64-i386-64bit,
stim/xp/M02-Joy-Apex.jpg,M02,Joy,Colère,incong,-0.5,right,,,,,0,33,33,31,right,1,0.502939939499,emo_stroop,UFmOFvaLxw,1440.0 * 900.0,59.903909325137256,MacBook-Pro-de-Bret.local,2019-03-01 17.29.34,Darwin-18.2.0-x86_64-i386-64bit,
stim/xp/M08-Joy-Apex.jpg,M08,Joy,Colère,incong,-0.5,right,,,,,0,34,34,39,left,0,0.985538005829,emo_stroop,UFmOFvaLxw,1440.0 * 900.0,59.903909325137256,MacBook-Pro-de-Bret.local,2019-03-01 17.29.34,Darwin-18.2.0-x86_64-i386-64bit,
stim/xp/M03-Anger-Apex.jpg,M03,Ang,Colère,cong,0.5,left,,,,,0,35,35,12,left,1,0.551176071167,emo_stroop,UFmOFvaLxw,1440.0 * 900.0,59.903909325137256,MacBook-Pro-de-Bret.local,2019-03-01 17.29.34,Darwin-18.2.0-x86_64-i386-64bit,
stim/xp/M03-Joy-Apex.jpg,M03,Joy,Colère,incong,-0.5,right,,,,,0,36,36,33,right,1,0.502270936966,emo_stroop,UFmOFvaLxw,1440.0 * 900.0,59.903909325137256,MacBook-Pro-de-Bret.local,2019-03-01 17.29.34,Darwin-18.2.0-x86_64-i386-64bit,
stim/xp/F05-Anger-Apex.jpg,F05,Ang,Colère,cong,0.5,left,,,,,0,37,37,8,left,1,0.56921005249,emo_stroop,UFmOFvaLxw,1440.0 * 900.0,59.903909325137256,MacBook-Pro-de-Bret.local,2019-03-01 17.29.34,Darwin-18.2.0-x86_64-i386-64bit,
stim/xp/M02-Anger-Apex.jpg,M02,Ang,Joie,incong,-0.5,left,,,,,0,38,38,30,right,0,0.536529064178,emo_stroop,UFmOFvaLxw,1440.0 * 900.0,59.903909325137256,MacBook-Pro-de-Bret.local,2019-03-01 17.29.34,Darwin-18.2.0-x86_64-i386-64bit,
stim/xp/F05-Anger-Apex.jpg,F05,Ang,Joie,incong,-0.5,left,,,,,0,39,39,28,left,1,0.619256973267,emo_stroop,UFmOFvaLxw,1440.0 * 900.0,59.903909325137256,MacBook-Pro-de-Bret.local,2019-03-01 17.29.34,Darwin-18.2.0-x86_64-i386-64bit,
