stim,actor,emo,print_word,cong,congr,corr,train.thisRepN,train.thisTrialN,train.thisN,train.thisIndex,trials.thisRepN,trials.thisTrialN,trials.thisN,trials.thisIndex,resp.keys,resp.corr,resp.rt,expName,participant,screen,frameRate,session,date,computer,
stim/training/M11-Joy-Apex.jpg,M11,Joy,Joie,cong,0.5,right,0,0,0,1,,,,,right,1,1.48712301254,emo_stroop,WyoIz8PF6t,1440.0 * 900.0,60.22759613962485,eduroam-110101.grenet.fr,2019-03-04 11.16.57,Darwin-18.2.0-x86_64-i386-64bit,
stim/training/M11-Anger-Apex.jpg,M11,Ang,Colère,cong,0.5,left,0,1,1,0,,,,,left,1,0.749919891357,emo_stroop,WyoIz8PF6t,1440.0 * 900.0,60.22759613962485,eduroam-110101.grenet.fr,2019-03-04 11.16.57,Darwin-18.2.0-x86_64-i386-64bit,
stim/training/M11-Anger-Apex.jpg,M11,Ang,Joie,incong,-0.5,left,0,2,2,2,,,,,left,1,1.01982903481,emo_stroop,WyoIz8PF6t,1440.0 * 900.0,60.22759613962485,eduroam-110101.grenet.fr,2019-03-04 11.16.57,Darwin-18.2.0-x86_64-i386-64bit,
stim/training/M11-Joy-Apex.jpg,M11,Joy,Colère,incong,-0.5,right,0,3,3,3,,,,,right,1,0.568651199341,emo_stroop,WyoIz8PF6t,1440.0 * 900.0,60.22759613962485,eduroam-110101.grenet.fr,2019-03-04 11.16.57,Darwin-18.2.0-x86_64-i386-64bit,
stim/xp/M08-Joy-Apex.jpg,M08,Joy,Joie,cong,0.5,right,,,,,0,0,0,19,right,1,1.03641104698,emo_stroop,WyoIz8PF6t,1440.0 * 900.0,60.22759613962485,eduroam-110101.grenet.fr,2019-03-04 11.16.57,Darwin-18.2.0-x86_64-i386-64bit,
stim/xp/M06-Anger-Apex.jpg,M06,Ang,Joie,incong,-0.5,left,,,,,0,1,1,36,left,1,0.518682003021,emo_stroop,WyoIz8PF6t,1440.0 * 900.0,60.22759613962485,eduroam-110101.grenet.fr,2019-03-04 11.16.57,Darwin-18.2.0-x86_64-i386-64bit,
stim/xp/F02-Anger-Apex.jpg,F02,Ang,Colère,cong,0.5,left,,,,,0,2,2,2,left,1,0.635333061218,emo_stroop,WyoIz8PF6t,1440.0 * 900.0,60.22759613962485,eduroam-110101.grenet.fr,2019-03-04 11.16.57,Darwin-18.2.0-x86_64-i386-64bit,
stim/xp/F02-Joy-Apex.jpg,F02,Joy,Joie,cong,0.5,right,,,,,0,3,3,3,right,1,0.603557109833,emo_stroop,WyoIz8PF6t,1440.0 * 900.0,60.22759613962485,eduroam-110101.grenet.fr,2019-03-04 11.16.57,Darwin-18.2.0-x86_64-i386-64bit,
stim/xp/F01-Anger-Apex.jpg,F01,Ang,Joie,incong,-0.5,left,,,,,0,4,4,20,left,1,0.652632951736,emo_stroop,WyoIz8PF6t,1440.0 * 900.0,60.22759613962485,eduroam-110101.grenet.fr,2019-03-04 11.16.57,Darwin-18.2.0-x86_64-i386-64bit,
stim/xp/M03-Joy-Apex.jpg,M03,Joy,Joie,cong,0.5,right,,,,,0,5,5,13,right,1,0.618606090546,emo_stroop,WyoIz8PF6t,1440.0 * 900.0,60.22759613962485,eduroam-110101.grenet.fr,2019-03-04 11.16.57,Darwin-18.2.0-x86_64-i386-64bit,
stim/xp/M08-Joy-Apex.jpg,M08,Joy,Colère,incong,-0.5,right,,,,,0,6,6,39,left,0,0.535933971405,emo_stroop,WyoIz8PF6t,1440.0 * 900.0,60.22759613962485,eduroam-110101.grenet.fr,2019-03-04 11.16.57,Darwin-18.2.0-x86_64-i386-64bit,
stim/xp/M03-Joy-Apex.jpg,M03,Joy,Colère,incong,-0.5,right,,,,,0,7,7,33,right,1,0.852789878845,emo_stroop,WyoIz8PF6t,1440.0 * 900.0,60.22759613962485,eduroam-110101.grenet.fr,2019-03-04 11.16.57,Darwin-18.2.0-x86_64-i386-64bit,
stim/xp/F04-Joy-Apex.jpg,F04,Joy,Colère,incong,-0.5,right,,,,,0,8,8,27,right,1,0.834095001221,emo_stroop,WyoIz8PF6t,1440.0 * 900.0,60.22759613962485,eduroam-110101.grenet.fr,2019-03-04 11.16.57,Darwin-18.2.0-x86_64-i386-64bit,
stim/xp/M03-Anger-Apex.jpg,M03,Ang,Joie,incong,-0.5,left,,,,,0,9,9,32,left,1,0.700580120087,emo_stroop,WyoIz8PF6t,1440.0 * 900.0,60.22759613962485,eduroam-110101.grenet.fr,2019-03-04 11.16.57,Darwin-18.2.0-x86_64-i386-64bit,
stim/xp/M02-Anger-Apex.jpg,M02,Ang,Colère,cong,0.5,left,,,,,0,10,10,10,left,1,0.719427108765,emo_stroop,WyoIz8PF6t,1440.0 * 900.0,60.22759613962485,eduroam-110101.grenet.fr,2019-03-04 11.16.57,Darwin-18.2.0-x86_64-i386-64bit,
stim/xp/F04-Anger-Apex.jpg,F04,Ang,Colère,cong,0.5,left,,,,,0,11,11,6,left,1,0.952902793884,emo_stroop,WyoIz8PF6t,1440.0 * 900.0,60.22759613962485,eduroam-110101.grenet.fr,2019-03-04 11.16.57,Darwin-18.2.0-x86_64-i386-64bit,
stim/xp/F03-Anger-Apex.jpg,F03,Ang,Colère,cong,0.5,left,,,,,0,12,12,4,left,1,0.669828891754,emo_stroop,WyoIz8PF6t,1440.0 * 900.0,60.22759613962485,eduroam-110101.grenet.fr,2019-03-04 11.16.57,Darwin-18.2.0-x86_64-i386-64bit,
stim/xp/F01-Joy-Apex.jpg,F01,Joy,Joie,cong,0.5,right,,,,,0,13,13,1,right,1,0.786118030548,emo_stroop,WyoIz8PF6t,1440.0 * 900.0,60.22759613962485,eduroam-110101.grenet.fr,2019-03-04 11.16.57,Darwin-18.2.0-x86_64-i386-64bit,
stim/xp/M08-Anger-Apex.jpg,M08,Ang,Colère,cong,0.5,left,,,,,0,14,14,18,left,1,0.803222179413,emo_stroop,WyoIz8PF6t,1440.0 * 900.0,60.22759613962485,eduroam-110101.grenet.fr,2019-03-04 11.16.57,Darwin-18.2.0-x86_64-i386-64bit,
stim/xp/M04-Joy-Apex.jpg,M04,Joy,Joie,cong,0.5,right,,,,,0,15,15,15,right,1,0.770196914673,emo_stroop,WyoIz8PF6t,1440.0 * 900.0,60.22759613962485,eduroam-110101.grenet.fr,2019-03-04 11.16.57,Darwin-18.2.0-x86_64-i386-64bit,
stim/xp/F02-Joy-Apex.jpg,F02,Joy,Colère,incong,-0.5,right,,,,,0,16,16,23,right,1,0.619291067123,emo_stroop,WyoIz8PF6t,1440.0 * 900.0,60.22759613962485,eduroam-110101.grenet.fr,2019-03-04 11.16.57,Darwin-18.2.0-x86_64-i386-64bit,
stim/xp/M06-Joy-Apex.jpg,M06,Joy,Colère,incong,-0.5,right,,,,,0,17,17,37,right,1,0.703076839447,emo_stroop,WyoIz8PF6t,1440.0 * 900.0,60.22759613962485,eduroam-110101.grenet.fr,2019-03-04 11.16.57,Darwin-18.2.0-x86_64-i386-64bit,
stim/xp/M06-Anger-Apex.jpg,M06,Ang,Colère,cong,0.5,left,,,,,0,18,18,16,left,1,0.836765050888,emo_stroop,WyoIz8PF6t,1440.0 * 900.0,60.22759613962485,eduroam-110101.grenet.fr,2019-03-04 11.16.57,Darwin-18.2.0-x86_64-i386-64bit,
stim/xp/F03-Anger-Apex.jpg,F03,Ang,Joie,incong,-0.5,left,,,,,0,19,19,24,left,1,0.65225982666,emo_stroop,WyoIz8PF6t,1440.0 * 900.0,60.22759613962485,eduroam-110101.grenet.fr,2019-03-04 11.16.57,Darwin-18.2.0-x86_64-i386-64bit,
stim/xp/F05-Anger-Apex.jpg,F05,Ang,Colère,cong,0.5,left,,,,,0,20,20,8,left,1,0.636267900467,emo_stroop,WyoIz8PF6t,1440.0 * 900.0,60.22759613962485,eduroam-110101.grenet.fr,2019-03-04 11.16.57,Darwin-18.2.0-x86_64-i386-64bit,
stim/xp/M02-Anger-Apex.jpg,M02,Ang,Joie,incong,-0.5,left,,,,,0,21,21,30,left,1,0.61665391922,emo_stroop,WyoIz8PF6t,1440.0 * 900.0,60.22759613962485,eduroam-110101.grenet.fr,2019-03-04 11.16.57,Darwin-18.2.0-x86_64-i386-64bit,
stim/xp/F01-Anger-Apex.jpg,F01,Ang,Colère,cong,0.5,left,,,,,0,22,22,0,left,1,0.517185926437,emo_stroop,WyoIz8PF6t,1440.0 * 900.0,60.22759613962485,eduroam-110101.grenet.fr,2019-03-04 11.16.57,Darwin-18.2.0-x86_64-i386-64bit,
stim/xp/M04-Anger-Apex.jpg,M04,Ang,Colère,cong,0.5,left,,,,,0,23,23,14,left,1,0.386288881302,emo_stroop,WyoIz8PF6t,1440.0 * 900.0,60.22759613962485,eduroam-110101.grenet.fr,2019-03-04 11.16.57,Darwin-18.2.0-x86_64-i386-64bit,
stim/xp/M08-Anger-Apex.jpg,M08,Ang,Joie,incong,-0.5,left,,,,,0,24,24,38,left,1,0.768622875214,emo_stroop,WyoIz8PF6t,1440.0 * 900.0,60.22759613962485,eduroam-110101.grenet.fr,2019-03-04 11.16.57,Darwin-18.2.0-x86_64-i386-64bit,
stim/xp/M02-Joy-Apex.jpg,M02,Joy,Colère,incong,-0.5,right,,,,,0,25,25,31,right,1,0.702852964401,emo_stroop,WyoIz8PF6t,1440.0 * 900.0,60.22759613962485,eduroam-110101.grenet.fr,2019-03-04 11.16.57,Darwin-18.2.0-x86_64-i386-64bit,
stim/xp/F03-Joy-Apex.jpg,F03,Joy,Colère,incong,-0.5,right,,,,,0,26,26,25,right,1,0.853000879288,emo_stroop,WyoIz8PF6t,1440.0 * 900.0,60.22759613962485,eduroam-110101.grenet.fr,2019-03-04 11.16.57,Darwin-18.2.0-x86_64-i386-64bit,
stim/xp/M04-Joy-Apex.jpg,M04,Joy,Colère,incong,-0.5,right,,,,,0,27,27,35,right,1,0.736237049103,emo_stroop,WyoIz8PF6t,1440.0 * 900.0,60.22759613962485,eduroam-110101.grenet.fr,2019-03-04 11.16.57,Darwin-18.2.0-x86_64-i386-64bit,
stim/xp/F03-Joy-Apex.jpg,F03,Joy,Joie,cong,0.5,right,,,,,0,28,28,5,right,1,0.986213922501,emo_stroop,WyoIz8PF6t,1440.0 * 900.0,60.22759613962485,eduroam-110101.grenet.fr,2019-03-04 11.16.57,Darwin-18.2.0-x86_64-i386-64bit,
stim/xp/F02-Anger-Apex.jpg,F02,Ang,Joie,incong,-0.5,left,,,,,0,29,29,22,left,1,0.81986784935,emo_stroop,WyoIz8PF6t,1440.0 * 900.0,60.22759613962485,eduroam-110101.grenet.fr,2019-03-04 11.16.57,Darwin-18.2.0-x86_64-i386-64bit,
stim/xp/F05-Anger-Apex.jpg,F05,Ang,Joie,incong,-0.5,left,,,,,0,30,30,28,left,1,0.769510984421,emo_stroop,WyoIz8PF6t,1440.0 * 900.0,60.22759613962485,eduroam-110101.grenet.fr,2019-03-04 11.16.57,Darwin-18.2.0-x86_64-i386-64bit,
stim/xp/F05-Joy-Apex.jpg,F05,Joy,Joie,cong,0.5,right,,,,,0,31,31,9,right,1,0.85050201416,emo_stroop,WyoIz8PF6t,1440.0 * 900.0,60.22759613962485,eduroam-110101.grenet.fr,2019-03-04 11.16.57,Darwin-18.2.0-x86_64-i386-64bit,
stim/xp/F05-Joy-Apex.jpg,F05,Joy,Colère,incong,-0.5,right,,,,,0,32,32,29,right,1,0.73370885849,emo_stroop,WyoIz8PF6t,1440.0 * 900.0,60.22759613962485,eduroam-110101.grenet.fr,2019-03-04 11.16.57,Darwin-18.2.0-x86_64-i386-64bit,
stim/xp/M03-Anger-Apex.jpg,M03,Ang,Colère,cong,0.5,left,,,,,0,33,33,12,left,1,0.750581979752,emo_stroop,WyoIz8PF6t,1440.0 * 900.0,60.22759613962485,eduroam-110101.grenet.fr,2019-03-04 11.16.57,Darwin-18.2.0-x86_64-i386-64bit,
stim/xp/F04-Joy-Apex.jpg,F04,Joy,Joie,cong,0.5,right,,,,,0,34,34,7,right,1,0.686264038086,emo_stroop,WyoIz8PF6t,1440.0 * 900.0,60.22759613962485,eduroam-110101.grenet.fr,2019-03-04 11.16.57,Darwin-18.2.0-x86_64-i386-64bit,
stim/xp/M06-Joy-Apex.jpg,M06,Joy,Joie,cong,0.5,right,,,,,0,35,35,17,right,1,0.702768087387,emo_stroop,WyoIz8PF6t,1440.0 * 900.0,60.22759613962485,eduroam-110101.grenet.fr,2019-03-04 11.16.57,Darwin-18.2.0-x86_64-i386-64bit,
stim/xp/F01-Joy-Apex.jpg,F01,Joy,Colère,incong,-0.5,right,,,,,0,36,36,21,right,1,0.902005910873,emo_stroop,WyoIz8PF6t,1440.0 * 900.0,60.22759613962485,eduroam-110101.grenet.fr,2019-03-04 11.16.57,Darwin-18.2.0-x86_64-i386-64bit,
stim/xp/F04-Anger-Apex.jpg,F04,Ang,Joie,incong,-0.5,left,,,,,0,37,37,26,left,1,0.869556903839,emo_stroop,WyoIz8PF6t,1440.0 * 900.0,60.22759613962485,eduroam-110101.grenet.fr,2019-03-04 11.16.57,Darwin-18.2.0-x86_64-i386-64bit,
stim/xp/M04-Anger-Apex.jpg,M04,Ang,Joie,incong,-0.5,left,,,,,0,38,38,34,left,1,0.602792978287,emo_stroop,WyoIz8PF6t,1440.0 * 900.0,60.22759613962485,eduroam-110101.grenet.fr,2019-03-04 11.16.57,Darwin-18.2.0-x86_64-i386-64bit,
stim/xp/M02-Joy-Apex.jpg,M02,Joy,Joie,cong,0.5,right,,,,,0,39,39,11,right,1,0.819439888,emo_stroop,WyoIz8PF6t,1440.0 * 900.0,60.22759613962485,eduroam-110101.grenet.fr,2019-03-04 11.16.57,Darwin-18.2.0-x86_64-i386-64bit,
